"Time (s)","Linear Acceleration x (m/s^2)","Linear Acceleration y (m/s^2)","Linear Acceleration z (m/s^2)","Absolute acceleration (m/s^2)"
1.077261300E-2,1.409109980E-1,-3.752699867E-2,-1.181479990E-1,1.876782743E-1
1.576807400E-2,1.782959998E-1,-4.132999852E-2,-1.038800031E-1,2.104487761E-1
2.076461300E-2,2.948999964E-2,-6.202999968E-3,-1.064500026E-2,3.196018332E-2
2.576121800E-2,-2.129569948E-1,5.910899863E-2,3.002399951E-2,2.230381041E-1
3.075760300E-2,-6.105399877E-2,2.283100039E-2,-3.685700148E-2,7.488179954E-2
3.575422100E-2,1.407029927E-1,-3.170600161E-2,-3.920900077E-2,1.494655426E-1
4.075076200E-2,5.207400024E-2,-1.688900031E-2,1.093200035E-2,5.582515978E-2
4.574716100E-2,-9.406899661E-2,2.512199990E-2,8.492000401E-3,9.773538291E-2
5.074369800E-2,-6.489899755E-2,2.512600087E-2,-2.017699927E-2,7.245900290E-2
5.574030300E-2,2.201299928E-2,1.369999954E-3,-6.324099749E-2,6.697665863E-2
6.073669000E-2,1.805300079E-2,3.932000138E-3,-5.368800089E-2,5.677827843E-2
6.573328900E-2,-1.660499908E-2,1.103700045E-2,-3.436000086E-3,2.023233724E-2
7.072983000E-2,-1.495699957E-2,4.159999953E-4,2.528999932E-2,2.938484231E-2
7.572621400E-2,-1.381999999E-2,9.500000306E-5,6.149000023E-3,1.512652062E-2
8.072280300E-2,-1.305700000E-2,1.193199959E-2,-2.017699927E-2,2.683224111E-2
8.571934300E-2,-2.735000104E-3,3.888000036E-3,-2.497999929E-2,2.542827431E-2
9.071595700E-2,7.025999948E-3,-1.532199979E-2,-8.217999712E-3,1.875270306E-2
9.571233400E-2,1.765999943E-3,-9.100000374E-3,8.580000140E-3,1.263111891E-2
1.007088710E-1,4.215000197E-3,-6.062999833E-3,1.419999986E-3,7.519480940E-3
1.057054760E-1,1.575000002E-3,-3.263999941E-3,-3.209000081E-2,3.229400057E-2
1.107018630E-1,-1.046700031E-2,-5.286999978E-3,-4.165299982E-2,4.327219498E-2
1.156983690E-1,-2.306000097E-3,-7.005000021E-3,-2.724600025E-2,2.822644489E-2
1.206949850E-1,7.422000170E-3,8.138000034E-3,-1.524499990E-2,1.880752916E-2
1.256913760E-1,-2.750999993E-3,9.875999764E-3,-2.246299945E-2,2.469189577E-2
1.306879130E-1,-7.147999946E-3,9.091000073E-3,-4.163499922E-2,4.321126410E-2
1.356845280E-1,8.319999906E-4,6.035999861E-3,-4.642999917E-2,4.682809351E-2
1.406811350E-1,8.529999759E-4,5.752999801E-3,-2.728600055E-2,2.789893263E-2
1.456775210E-1,-1.658000052E-3,1.262199972E-2,-8.144999854E-3,1.511306930E-2
1.506740580E-1,7.999999798E-4,1.983999973E-3,1.396000036E-3,2.554422041E-3
1.556704440E-1,3.032000037E-3,4.199999850E-3,-1.297799964E-2,1.397360002E-2
1.606670580E-1,-1.979999943E-3,1.105600037E-2,-2.975500003E-2,3.180433257E-2
1.656635930E-1,7.510000141E-4,1.008599997E-2,-2.978100069E-2,3.145154048E-2
1.706602070E-1,-1.541999984E-3,9.305000305E-3,-2.261999995E-2,2.450765579E-2
1.756565780E-1,-6.254000124E-3,3.781999927E-3,-2.743200026E-2,2.838891825E-2
1.806531920E-1,-1.081999973E-3,-1.254000003E-3,-3.700999916E-2,3.704704141E-2
1.856497320E-1,3.770000068E-3,-3.439000109E-3,-3.221400082E-2,3.261566297E-2
1.906463450E-1,-3.771000076E-3,-6.619999767E-4,-2.023600042E-2,2.059500907E-2
1.956427320E-1,-5.900000222E-3,6.630000193E-3,-1.783300005E-2,1.991940752E-2
2.006392640E-1,4.220999777E-3,-1.175999991E-3,-2.263199911E-2,2.305227101E-2
2.056356500E-1,1.517000026E-3,-8.301000111E-3,-1.784699969E-2,1.974141053E-2
2.106322650E-1,-1.067999983E-3,-7.544000167E-3,-1.303699985E-2,1.510019628E-2
2.156288050E-1,3.741000080E-3,-6.866000127E-3,-1.540900022E-2,1.727930343E-2
2.206254180E-1,-1.432999969E-3,-6.238999777E-3,-1.778900065E-2,1.890574386E-2
2.256218000E-1,-3.766000038E-3,3.916999791E-3,-2.974100038E-2,3.023330527E-2
2.306184130E-1,1.304000034E-3,1.267999993E-3,-3.692499921E-2,3.696976882E-2
2.356149300E-1,-3.727999981E-3,-3.629999934E-3,-3.693500161E-2,3.729972155E-2
2.406113150E-1,-3.439999884E-3,-8.200000157E-4,-3.451900184E-2,3.469967561E-2
2.456078510E-1,6.291000172E-3,-5.441000219E-3,-2.014599927E-2,2.179546864E-2
2.506044610E-1,8.019999950E-4,-1.210399996E-2,-3.382999916E-3,1.259343907E-2
2.556008480E-1,-8.929999545E-3,-1.106499974E-2,1.436999999E-3,1.429139881E-2
2.605974750E-1,-8.156999946E-3,-1.012900006E-2,-3.303000005E-3,1.341801399E-2
2.655940160E-1,-2.653999953E-3,-9.259000421E-3,-8.047999814E-3,1.255161765E-2
2.705906290E-1,-4.794999957E-3,-6.054999772E-3,-1.040999964E-2,1.296237398E-2
2.755870450E-1,4.330000083E-4,-7.229999756E-4,-3.198999912E-3,3.308144254E-3
2.805835810E-1,7.491999771E-3,-3.155000042E-3,-3.202999942E-3,8.737464991E-3
2.855802020E-1,4.470999818E-3,-7.770999800E-3,-1.518100034E-2,1.763068486E-2
2.905765880E-1,1.732000033E-3,-2.278000116E-3,-2.474099956E-2,2.490594644E-2
2.955732260E-1,4.033000208E-3,2.772999927E-3,-2.473199926E-2,2.521163237E-2
3.005697660E-1,8.531000465E-3,4.997999873E-3,-2.234799974E-2,2.443749300E-2
3.055661600E-1,7.850999944E-3,-1.559999946E-4,-2.476999909E-2,2.598490698E-2
3.105627730E-1,-2.239000052E-3,-1.780000021E-4,-2.238800004E-2,2.250038558E-2
3.155593140E-1,-4.286000039E-3,-2.070000046E-4,-1.759300008E-2,1.810873539E-2
3.205557030E-1,-6.271000020E-3,-1.420000044E-4,-2.237099968E-2,2.323375200E-2
3.255523170E-1,-8.939999971E-4,-6.900000153E-5,-2.475200035E-2,2.476823607E-2
3.305489320E-1,8.813000284E-3,-2.284999937E-3,-2.234699950E-2,2.413044934E-2
3.355454830E-1,8.004000410E-3,3.650000144E-4,-1.756599918E-2,1.930703433E-2
3.405418670E-1,-2.321999986E-3,5.067000166E-3,-1.040000003E-2,1.179941419E-2
3.455385100E-1,-9.275999852E-3,9.344000369E-3,-1.999299973E-2,2.393897563E-2
3.505350500E-1,-3.749999916E-3,8.596999571E-3,-2.957900055E-2,3.103043948E-2
3.555314300E-1,6.107000168E-3,7.942000404E-3,-2.959600091E-2,3.124570517E-2
3.605280430E-1,3.148999996E-3,1.610000036E-4,-2.483999915E-2,2.503932267E-2
3.655245840E-1,4.349999945E-4,-6.965999957E-3,-2.005599998E-2,2.123576030E-2
3.705212060E-1,2.734000096E-3,-3.922000062E-3,-1.045800000E-2,1.149898279E-2
3.755175930E-1,2.426000079E-3,-3.456000006E-3,-5.661000032E-3,7.062317876E-3
3.805141290E-1,-2.540000132E-4,-6.520000170E-4,-1.283300016E-2,1.285206260E-2
3.855107500E-1,-5.090000108E-3,6.618000101E-3,-2.001399919E-2,2.168562174E-2
3.905071360E-1,-9.499999695E-3,1.328799967E-2,-1.763099991E-2,2.403483071E-2
3.955036830E-1,-8.747000247E-3,1.219699997E-2,-2.244099975E-2,2.699769048E-2
4.005002980E-1,-5.760000087E-3,1.360700000E-2,-2.964599989E-2,3.312421108E-2
4.054969330E-1,1.770999981E-3,7.837999612E-3,-2.249000035E-2,2.388243695E-2
4.104933190E-1,6.246999837E-3,-2.345999936E-3,-2.251899987E-2,2.348689162E-2
4.154898650E-1,7.619999815E-4,-2.186999889E-3,-2.492100000E-2,2.502838096E-2
4.204864800E-1,6.479999865E-4,5.249999929E-3,-2.730599977E-2,2.781366619E-2
4.254828770E-1,5.469999742E-4,4.978999961E-3,-3.210600093E-2,3.249438329E-2
4.304794900E-1,-4.323999863E-3,-2.435999922E-3,-2.732799947E-2,2.777500001E-2
4.354760310E-1,-8.786000311E-3,-4.548000172E-3,-1.773500070E-2,2.030783979E-2
4.404724440E-1,-1.049000025E-2,-6.506000180E-3,-2.009999938E-2,2.358766879E-2
4.454690580E-1,-4.964999855E-3,-3.605999984E-3,-2.006999962E-2,2.098712329E-2
4.504655930E-1,-2.203000011E-3,-3.244000021E-3,-1.526100002E-2,1.575674036E-2
4.554619780E-1,-2.080000006E-3,-7.716000080E-3,-1.524799969E-2,1.721524185E-2
4.604585910E-1,2.820000052E-3,-9.410000406E-3,-1.522000041E-2,1.811488119E-2
4.654551860E-1,2.512000035E-3,-6.171000190E-3,-1.040999964E-2,1.235959061E-2
4.704517270E-1,2.218999900E-3,-5.615000147E-3,-5.607999861E-3,8.240257863E-3
4.754481220E-1,4.236999899E-3,-3.349999897E-4,-1.038799994E-2,1.122385566E-2
4.804447350E-1,1.337699965E-2,-2.809999860E-4,-1.996999979E-2,2.403796938E-2
4.854412750E-1,5.094999913E-3,4.585000221E-3,-2.238399908E-2,2.340992665E-2
4.904376600E-1,-2.580000088E-3,9.045000188E-3,-8.039999753E-3,1.237376357E-2
4.954342730E-1,-4.600000102E-5,1.068599988E-2,-5.669999868E-3,1.209717355E-2
5.004308190E-1,2.372999908E-3,2.602000022E-3,-1.527599990E-2,1.567666118E-2
5.054274320E-1,2.104999963E-3,9.496999905E-3,-1.529300027E-2,1.812456590E-2
5.104238190E-1,-7.825000212E-3,1.112100016E-2,-1.293100044E-2,1.876480869E-2
5.154203350E-1,-9.618000127E-3,7.807000075E-3,-1.294900011E-2,1.792015013E-2
5.204169510E-1,7.079999777E-4,9.568000212E-3,-8.166999556E-3,1.259951482E-2
5.254135710E-1,7.749000099E-3,4.087000154E-3,-8.193000220E-3,1.199482494E-2
5.304099580E-1,2.219999908E-3,3.755999962E-3,-1.779600047E-2,1.832303381E-2
5.354064800E-1,-2.819000045E-3,3.481999971E-3,-1.541899983E-2,1.605666967E-2
5.404028670E-1,-2.490000043E-4,8.290000260E-4,-1.302899979E-2,1.305772100E-2
5.453994800E-1,2.095999895E-3,7.910000277E-4,-1.303000003E-2,1.322118744E-2
5.503961100E-1,1.846999978E-3,-1.637000008E-3,-1.303599961E-2,1.326757189E-2
5.553926500E-1,-7.740000146E-4,-6.357000209E-3,-1.543399971E-2,1.670984365E-2
5.603890500E-1,6.407999899E-3,-8.167999797E-3,-2.978000045E-2,3.153770933E-2
5.653856630E-1,3.527000081E-3,-4.991999827E-3,-3.455200046E-2,3.508846716E-2
5.703822040E-1,-3.785999957E-3,-2.071999945E-3,-1.538299955E-2,1.597697264E-2
5.753785780E-1,-8.212000132E-3,4.339999869E-4,-1.058300026E-2,1.340243249E-2
5.803751920E-1,-5.189000163E-3,4.220000119E-4,-1.535900030E-2,1.621735789E-2
5.853718020E-1,-2.416000003E-3,2.820000052E-3,-3.211100027E-2,3.232500262E-2
5.903683430E-1,1.440000051E-4,9.851000272E-3,-3.929400072E-2,4.051026332E-2
5.953647130E-1,-7.077000104E-3,1.630000025E-2,-2.016600035E-2,2.687827206E-2
6.003613270E-1,-4.029000178E-3,1.266799960E-2,-1.780200005E-2,2.221761153E-2
6.053578670E-1,1.093299966E-2,1.162999962E-2,-2.979500033E-2,3.380132272E-2
6.103542520E-1,2.223500051E-2,1.139999949E-3,-2.026199922E-2,3.010387782E-2
6.153508650E-1,5.688999780E-3,-3.580000019E-3,3.236800060E-2,3.305856290E-2
6.203474060E-1,-7.958000153E-2,2.057299949E-2,3.713500127E-2,9.019552800E-2
6.253440090E-1,-8.282800019E-2,3.753700107E-2,-8.012600243E-2,1.212009915E-1
6.303403960E-1,1.720239967E-1,-3.960200027E-2,-1.303309947E-1,2.194236588E-1
6.353369040E-1,1.362069994E-1,-6.169600040E-2,6.105599925E-2,1.615133994E-1
6.403335190E-1,-2.806139886E-1,6.766799837E-2,8.492700011E-2,3.008916150E-1
6.453301490E-1,3.526699916E-2,-2.255699970E-2,-6.804800034E-2,7.989436660E-2
6.503265350E-1,1.491480023E-1,-3.957099840E-2,-3.453300148E-2,1.581250097E-1
6.553230720E-1,-9.613099694E-2,2.877799980E-2,-8.015500009E-2,1.284296145E-1
6.603196870E-1,6.562999636E-2,-2.593800053E-2,1.346000005E-3,7.058249081E-2
6.653160740E-1,-6.197199970E-2,1.686899923E-2,1.327900030E-2,6.558524019E-2
6.703125960E-1,2.242299914E-2,-3.978000022E-3,-1.300899964E-2,2.622688404E-2
6.753092120E-1,2.292799950E-2,-6.099999882E-3,-4.416000098E-2,5.012991967E-2
6.803055980E-1,-7.503800094E-2,3.535500169E-2,-3.699500114E-2,9.082570032E-2
6.853021980E-1,8.449400216E-2,-3.919300064E-2,2.049800009E-2,9.537030832E-2
6.902987380E-1,-1.144800037E-1,3.580800071E-2,-2.503100038E-2,1.225334042E-1
6.952953520E-1,1.201210022E-1,-3.433400020E-2,4.448699951E-2,1.326158809E-1
7.002917380E-1,-2.631499991E-2,-1.728400029E-2,-1.088500023E-1,1.133116891E-1
7.052882940E-1,-1.008879989E-1,5.874700099E-2,8.565999568E-3,1.170597062E-1
7.102849090E-1,2.097119987E-1,-1.089000031E-1,1.337100007E-2,2.366793542E-1
7.152812960E-1,-2.512339950E-1,8.220999688E-2,-8.243899792E-2,2.768992456E-1
7.202778940E-1,9.303499758E-2,8.224000223E-3,1.164570004E-1,1.492828788E-1
7.252745100E-1,1.763869971E-1,-1.317760050E-1,-8.484800160E-2,2.359586227E-1
7.302710410E-1,-3.249999881E-1,1.406880021E-1,-1.158780009E-1,3.726202051E-1
7.352674260E-1,1.552679986E-1,9.367000312E-3,1.260920018E-1,2.002375714E-1
7.402640390E-1,2.191980034E-1,-1.761389971E-1,-5.856100097E-2,2.872317911E-1
7.452605800E-1,-3.623760045E-1,1.238619983E-1,-1.326230019E-1,4.052740109E-1
7.502571930E-1,1.074699964E-2,9.677100182E-2,1.309870034E-1,1.632106610E-1
7.552535650E-1,3.547030091E-1,-2.133390009E-1,-5.783000030E-3,4.139579654E-1
7.602501010E-1,-2.091780007E-1,-1.271000016E-3,-2.092600018E-1,2.958830846E-1
7.652467170E-1,-2.632359862E-1,2.435699999E-1,5.206599832E-2,3.623953608E-1
7.702433320E-1,3.118120134E-1,-7.407300174E-2,1.715340018E-1,3.635071596E-1
7.752397190E-1,1.901730001E-1,-2.550710142E-1,-1.113300025E-1,3.370776790E-1
7.802363320E-1,-3.504830003E-1,1.141159981E-1,-1.803030074E-1,4.103290984E-1
7.852328720E-1,-1.577170044E-1,2.626419961E-1,1.072470024E-1,3.245880330E-1
7.902292570E-1,3.461509943E-1,-1.234939992E-1,1.570570022E-1,3.996725918E-1
7.952258610E-1,1.689410061E-1,-2.859170139E-1,-1.137550026E-1,3.510410275E-1
8.002224020E-1,-3.242819905E-1,1.026989967E-1,-1.610459983E-1,3.763531678E-1
8.052187910E-1,-2.008080035E-1,3.311870098E-1,1.025450006E-1,4.006546729E-1
8.102154040E-1,2.898559868E-1,-2.722599916E-2,1.809639931E-1,3.427910660E-1
8.152119540E-1,2.682119906E-1,-3.485380113E-1,-6.608299911E-2,4.447284340E-1
8.202085680E-1,-1.925310045E-1,-7.441399992E-2,-2.163249999E-1,2.990019008E-1
8.252049540E-1,-3.243179917E-1,3.467249870E-1,-9.867000394E-3,4.748660170E-1
8.302015680E-1,6.445500255E-2,1.974920034E-1,1.955720037E-1,2.853172750E-1
8.351981080E-1,3.439149857E-1,-2.862719893E-1,4.167500138E-2,4.494062472E-1
8.401947220E-1,9.735599905E-2,-3.242929876E-1,-2.047089934E-1,3.956638780E-1
8.451910840E-1,-2.938449979E-1,1.377049983E-1,-1.583490074E-1,3.610844187E-1
8.501876980E-1,-2.375510037E-1,3.990739882E-1,8.591900021E-2,4.723056235E-1
8.551842280E-1,1.795690060E-1,6.343299896E-2,1.713739932E-1,2.561987876E-1
8.601806130E-1,3.345589936E-1,-3.707099855E-1,-2.784899995E-2,5.001311631E-1
8.651772260E-1,2.878000028E-2,-2.576150000E-1,-2.308419943E-1,3.471048876E-1
8.701737670E-1,-3.086329997E-1,2.321529984E-1,-1.318909973E-1,4.080987360E-1
8.751704090E-1,-2.080720067E-1,4.062899947E-1,1.216769964E-1,4.724095799E-1
8.801667960E-1,1.872690022E-1,3.196400031E-2,1.807450056E-1,2.622215353E-1
8.851634090E-1,3.127709925E-1,-3.827880025E-1,-2.558900043E-2,4.949819649E-1
8.901599340E-1,2.561499923E-2,-2.639890015E-1,-2.165469974E-1,3.424016986E-1
8.951565470E-1,-2.970719934E-1,2.286469936E-1,-1.295460016E-1,3.966275122E-1
9.001529250E-1,-2.213609964E-1,4.198429883E-1,9.528700262E-2,4.840954848E-1
9.051495380E-1,1.608330011E-1,6.101499870E-2,1.806750000E-1,2.494665106E-1
9.101460780E-1,3.220719993E-1,-3.730390072E-1,1.261899993E-2,4.929986945E-1
9.151424680E-1,7.725200057E-2,-3.174409866E-1,-1.879840046E-1,3.769278944E-1
9.201390820E-1,-2.714119852E-1,1.534450054E-1,-1.511839926E-1,3.465060389E-1
9.251356410E-1,-2.672699988E-1,4.254100025E-1,5.228599906E-2,5.051145891E-1
9.301320260E-1,8.536099643E-2,1.355150044E-1,1.688389927E-1,2.327174716E-1
9.351286240E-1,3.223879933E-1,-3.405950069E-1,3.423999995E-2,4.702247916E-1
9.401252390E-1,1.542689949E-1,-3.740679920E-1,-1.760540009E-1,4.412717945E-1
9.451217710E-1,-2.249280065E-1,5.605600029E-2,-1.942750067E-1,3.024527426E-1
9.501181560E-1,-3.131459951E-1,4.203889966E-1,-1.212100033E-2,5.243417220E-1
9.551147690E-1,-1.400000043E-2,2.480950058E-1,1.691280007E-1,3.005851169E-1
9.601112940E-1,2.836399972E-1,-2.373930067E-1,9.185600281E-2,3.811097124E-1
9.651079080E-1,2.215709984E-1,-4.017919898E-1,-1.210850030E-1,4.745440848E-1
9.701042850E-1,-1.299369931E-1,-7.726799697E-2,-2.040179968E-1,2.539238243E-1
9.751008990E-1,-3.173840046E-1,3.536689878E-1,-4.792499915E-2,4.776098458E-1
9.800974390E-1,-1.087979972E-1,3.474940062E-1,1.670150012E-1,4.006034188E-1
9.850940620E-1,2.350279987E-1,-1.032660007E-1,1.518760026E-1,2.982756229E-1
9.900904480E-1,2.752229869E-1,-4.155820012E-1,-4.459999874E-2,5.004450541E-1
9.950869710E-1,-2.069899999E-2,-2.267320007E-1,-2.042450011E-1,3.058625005E-1
1.000083586E0,-2.891860008E-1,2.531290054E-1,-1.220619977E-1,4.032393430E-1
1.005079973E0,-2.094929963E-1,4.278349876E-1,7.873799652E-2,4.828351315E-1
1.010076586E0,1.333339959E-1,6.820800155E-2,1.616799980E-1,2.203876306E-1
1.015073127E0,3.207280040E-1,-3.734929860E-1,2.477199957E-2,4.929270890E-1
1.020069749E0,1.430660039E-1,-3.633170128E-1,-1.662559956E-1,4.243915519E-1
1.025066136E0,-2.089319974E-1,6.821600348E-2,-1.868769974E-1,2.884943930E-1
1.030062749E0,-3.009589911E-1,4.313740134E-1,-3.591800109E-2,5.272095945E-1
1.035059290E0,-2.908699960E-2,2.796759903E-1,1.404770017E-1,3.143222886E-1
1.040055899E0,2.769579887E-1,-2.107460052E-1,1.325770020E-1,3.724194781E-1
1.045052286E0,2.536709905E-1,-4.300369918E-1,-6.366799772E-2,5.033233550E-1
1.050048899E0,-6.205800176E-2,-1.538430005E-1,-1.681330055E-1,2.361939287E-1
1.055045439E0,-2.935009897E-1,3.145219982E-1,-7.655300200E-2,4.369522633E-1
1.060042053E0,-1.822970062E-1,4.289390147E-1,7.618100196E-2,4.722546155E-1
1.065038410E0,1.514710039E-1,3.362200037E-2,1.519179940E-1,2.171473712E-1
1.070035024E0,3.016430140E-1,-3.882769942E-1,2.705300041E-2,4.924219704E-1
1.075031568E0,1.113499999E-1,-3.530200124E-1,-1.543159932E-1,4.010428623E-1
1.080027953E0,-2.163529992E-1,8.223000169E-2,-1.844999939E-1,2.959909478E-1
1.085024552E0,-2.886900008E-1,4.249010086E-1,-3.597300127E-2,5.149532411E-1
1.090021093E0,-1.547400001E-2,2.666780055E-1,1.260579973E-1,2.953764073E-1
1.095017706E0,2.728999853E-1,-2.106679976E-1,9.902299941E-2,3.586934089E-1
1.100014088E0,2.549340129E-1,-4.396019876E-1,-6.847699732E-2,5.127673523E-1
1.105010701E0,-5.122699961E-2,-1.793150008E-1,-2.016409934E-1,2.746582698E-1
1.110007242E0,-3.122709990E-1,2.842420042E-1,-1.339240074E-1,4.429924756E-1
1.115003832E0,-2.233459949E-1,4.300400019E-1,5.004800111E-2,4.871577148E-1
1.120000219E0,1.182669997E-1,8.477900177E-2,1.617330015E-1,2.175594772E-1
1.124996846E0,3.092159927E-1,-3.486379981E-1,7.030099630E-2,4.712803984E-1
1.129993462E0,1.587959975E-1,-3.839240074E-1,-1.088190004E-1,4.294826971E-1
1.134990006E0,-1.682440042E-1,1.031999942E-3,-1.677280068E-1,2.375706090E-1
1.139986391E0,-3.020739853E-1,4.058859944E-1,-4.774500057E-2,5.082044059E-1
1.144982951E0,-9.458599985E-2,3.547379971E-1,1.358869970E-1,3.914726477E-1
1.149979567E0,2.172079980E-1,-1.013190001E-1,1.422619969E-1,2.787172940E-1
1.154976182E0,2.901290059E-1,-4.209469855E-1,-2.305999957E-2,5.117645633E-1
1.159972584E0,5.052699894E-2,-2.725850046E-1,-2.018759996E-1,3.429423881E-1
1.164969197E0,-2.501850128E-1,1.752379984E-1,-1.914789975E-1,3.605067311E-1
1.169965746E0,-2.668560147E-1,4.429970086E-1,7.094000001E-3,5.172125356E-1
1.174962131E0,2.348200046E-2,2.090259939E-1,1.594810039E-1,2.639648861E-1
1.179958744E0,2.844749987E-1,-2.611930072E-1,8.703699708E-2,3.958828751E-1
1.184955290E0,2.271379977E-1,-4.140900075E-1,-9.949900210E-2,4.826616370E-1
1.189951903E0,-1.032769978E-1,-7.678200305E-2,-2.111330032E-1,2.472625312E-1
1.194948285E0,-3.216489851E-1,3.638260067E-1,-8.141099662E-2,4.923973834E-1
1.199944898E0,-2.384700067E-2,2.347850055E-1,1.598290056E-1,2.850227873E-1
1.204941439E0,3.277730048E-1,-2.065040022E-1,5.386200175E-2,3.911267836E-1
1.209938072E0,-1.283950061E-1,-3.598700091E-2,-1.424369961E-1,1.951118645E-1
1.214934459E0,-8.891099691E-2,9.682799876E-2,3.505900130E-2,1.360513149E-1
1.219930995E0,1.390130073E-1,-5.029400066E-2,-2.013500035E-2,1.491962497E-1
1.224927702E0,-6.447599828E-2,2.349999920E-2,-5.134699866E-2,8.570833442E-2
1.229924242E0,1.310900040E-2,7.358000148E-3,-1.059400011E-2,1.839072853E-2
1.234920632E0,5.293999985E-2,-2.905499935E-2,-3.217700124E-2,6.842657364E-2
1.239917245E0,-8.820100129E-2,4.045699909E-2,-1.542400010E-2,9.825520435E-2
1.244913781E0,7.056500018E-2,-2.522899956E-2,-7.045099884E-2,1.028555536E-1
1.249910165E0,6.635999773E-3,-1.196000027E-3,2.527200058E-2,2.615608767E-2
1.254906779E0,-1.472620070E-1,4.180600122E-2,-6.093500182E-2,1.647632085E-1
1.259903343E0,1.843879968E-1,-6.926500052E-2,-4.641800001E-2,2.023640393E-1
1.264899956E0,-4.747600108E-2,1.583999954E-2,4.444399849E-2,6.693388728E-2
1.269896582E0,-1.923249960E-1,7.149200141E-2,-6.807699800E-2,2.161816089E-1
1.274892969E0,1.338720024E-1,-2.775900066E-2,-1.134120002E-1,1.776360237E-1
1.279889505E0,1.370809972E-1,-4.854600132E-2,2.053700015E-2,1.468662058E-1
1.284886135E0,-1.316590011E-1,2.507900074E-2,9.944800287E-2,1.668920433E-1
1.289882751E0,-1.047099978E-1,2.951600030E-2,-1.297799964E-2,1.095618838E-1
1.294879146E0,8.877900243E-2,-1.630000025E-2,-1.158360019E-1,1.468515598E-1
1.299875760E0,8.445700258E-2,-1.903299987E-2,-7.520200312E-2,1.146759855E-1
1.304872300E0,-2.749300003E-2,9.472999722E-3,3.726899996E-2,4.727135637E-2
1.309868685E0,-5.391800031E-2,1.562800072E-2,7.797999680E-2,9.608467654E-2
1.314865221E0,-2.086000051E-3,6.467999890E-3,-3.410999896E-3,7.604034395E-3
1.319861823E0,1.675399952E-2,1.289100014E-2,-9.203000367E-2,9.442666975E-2
1.324858438E0,-1.370999962E-3,1.224900037E-2,-1.016549990E-1,1.023994945E-1
1.329854825E0,4.155000206E-3,2.214000095E-3,-3.701199964E-2,3.731023908E-2
1.334851443E0,2.016999992E-3,-7.453999948E-3,1.566199958E-2,1.746220591E-2
1.339847984E0,-7.629000116E-3,-2.395000076E-3,-5.878000055E-3,9.924139901E-3
1.344844592E0,-7.149999961E-3,3.000000106E-6,-6.572300196E-2,6.611078199E-2
1.349841207E0,3.710000019E-4,2.880000102E-4,-6.809899956E-2,6.810061913E-2
1.354837589E0,2.564999973E-3,-8.915999904E-3,-2.499599941E-2,2.666222545E-2
1.359834126E0,2.416000003E-3,-1.766600087E-2,1.333700027E-2,2.226657179E-2
1.364830741E0,-4.863000009E-3,-1.162699983E-2,-9.899999714E-4,1.264183507E-2
1.369827113E0,-9.105999954E-3,-1.166000031E-3,-4.404399917E-2,4.499058406E-2
1.374823726E0,-5.828999914E-3,3.945999779E-3,-4.640800133E-2,4.693879783E-2
1.379820271E0,-6.399999838E-4,3.942000214E-3,-1.527700014E-2,1.579036729E-2
1.384816656E0,3.944000229E-3,-1.148000010E-3,8.651000448E-3,9.576682650E-3
1.389813269E0,3.515999997E-3,-6.080999970E-3,-1.530500036E-2,1.683994812E-2
1.394809885E0,8.057000116E-3,-9.459999856E-4,-5.121200159E-2,5.185054748E-2
1.399806425E0,2.693000017E-3,4.064000212E-3,-5.121599883E-2,5.144751581E-2
1.404803039E0,1.829999965E-4,6.353999954E-3,-2.009500004E-2,2.107642833E-2
1.409799411E0,2.520000096E-3,5.859000143E-3,6.221999880E-3,8.910194480E-3
1.414795948E0,-4.962999839E-3,-4.348999821E-3,-8.170000277E-3,1.050209843E-2
1.419792563E0,-2.206000034E-3,3.113999963E-3,-4.406600073E-2,4.423093773E-2
1.424788950E0,7.662999909E-3,5.359999835E-3,-5.124700069E-2,5.209324569E-2
1.429785563E0,-6.099999882E-5,3.560000041E-4,-2.732500061E-2,2.732738765E-2
1.434782113E0,-4.772999790E-3,3.969999962E-4,-3.379999893E-3,5.862041902E-3
1.439778726E0,2.742999932E-3,2.610000083E-4,-1.295400038E-2,1.324380216E-2
1.444775113E0,4.848999903E-3,2.669999958E-4,-3.450699896E-2,3.484705247E-2
1.449771726E0,-2.680000034E-4,2.729000058E-3,-4.408999905E-2,4.417518853E-2
1.454768328E0,4.647000227E-3,2.717999974E-3,-3.211500123E-2,3.256309935E-2
1.459764868E0,4.435999785E-3,-2.114000032E-3,-3.389999969E-3,5.969856783E-3
1.464761247E0,-5.381000228E-3,5.144999828E-3,-3.392999992E-3,8.181603488E-3
1.469757860E0,-4.782999866E-3,9.389000013E-3,-3.213100135E-2,3.381466630E-2
1.474754401E0,-8.972999640E-3,8.667999879E-3,-4.411400110E-2,4.584423668E-2
1.479750771E0,-8.097999729E-3,3.357999958E-3,-3.214199841E-2,3.331608958E-2
1.484747615E0,4.650999792E-3,-1.530000009E-3,-1.058300026E-2,1.166072869E-2
1.489743997E0,1.137700025E-2,1.015000045E-3,-5.799000151E-3,1.280994780E-2
1.494740533E0,7.943999954E-3,5.725000054E-3,-2.497499995E-2,2.682598336E-2
1.499737149E0,7.333999965E-3,7.691999897E-3,-3.218400106E-2,3.389342624E-2
1.504733769E0,6.788999774E-3,2.431999892E-3,-2.024099976E-2,2.148728025E-2
1.509730156E0,1.105799992E-2,-7.199000102E-3,-1.097999979E-3,1.324048974E-2
1.514726715E0,5.353999790E-3,-4.195000045E-3,3.690999933E-3,7.738657482E-3
1.519723331E0,-4.554000217E-3,3.324999940E-3,-1.066800021E-2,1.206651445E-2
1.524719722E0,-1.618999988E-3,-1.725999988E-3,-2.742500044E-2,2.752691204E-2
1.529716336E0,-1.305000042E-3,-3.796000034E-3,-3.698699921E-2,3.720417654E-2
1.534712871E0,-1.001000055E-3,1.521000057E-3,-2.020299993E-2,2.028488720E-2
1.539709256E0,-5.644999910E-3,3.836000105E-3,-8.232999593E-3,1.069407327E-2
1.544706100E0,-1.001499966E-2,1.549500041E-2,-2.499300055E-2,3.106517878E-2
1.549702410E0,-4.296999890E-3,9.336999618E-3,-4.656900093E-2,4.768978525E-2
1.554699023E0,-6.213000044E-3,1.476999954E-3,-5.615799874E-2,5.651994091E-2
1.559695630E0,1.628000056E-3,1.503000036E-3,-4.656700045E-2,4.661968387E-2
1.564692245E0,3.990999889E-3,-3.185000038E-3,-3.219800070E-2,3.260036126E-2
1.569688637E0,-1.055000001E-3,-4.339999869E-4,-2.261400037E-2,2.264275587E-2
1.574685250E0,-8.980000275E-4,-2.736000111E-3,-2.260899916E-2,2.279164197E-2
1.579681869E0,-3.252000082E-3,-4.840000067E-3,-2.020500042E-2,2.102957791E-2
1.584678410E0,-5.408999976E-3,-6.771000102E-3,-2.497199923E-2,2.643301853E-2
1.589674799E0,-8.600000001E-5,-6.128999870E-3,-2.733499929E-2,2.801382198E-2
1.594671336E0,2.493999898E-3,-7.459999761E-4,-2.491700090E-2,2.505261435E-2
1.599667723E0,4.850000143E-3,4.168000072E-3,-3.927800059E-2,3.979517630E-2
1.604664577E0,2.240000060E-3,-8.720000042E-4,-4.168599844E-2,4.175524458E-2
1.609660963E0,-2.640000079E-3,-7.868000306E-3,-2.970900014E-2,3.084638907E-2
1.614657485E0,7.242000196E-3,-4.722999875E-3,-2.488899976E-2,2.634797153E-2
1.619654100E0,4.294000100E-3,5.218000151E-3,-2.967800014E-2,3.043763550E-2
1.624650478E0,-7.964000106E-3,9.531999938E-3,-2.969899960E-2,3.219184520E-2
1.629647091E0,-2.412999980E-3,1.118599996E-2,-2.731399983E-2,2.961424912E-2
1.634643632E0,2.600000007E-4,1.040299982E-2,-2.972899936E-2,3.149767306E-2
1.639640249E0,-6.864000112E-3,2.405999927E-3,-2.496699989E-2,2.600489217E-2
1.644636636E0,8.730000118E-4,-2.525999909E-3,-1.538399979E-2,1.561442456E-2
1.649633240E0,7.450000267E-4,-4.563000053E-3,-1.058600005E-2,1.155159693E-2
1.654629781E0,-1.772999996E-3,-6.544000003E-3,-1.536399964E-2,1.679344962E-2
1.659626394E0,3.115999978E-3,-1.084200013E-2,-2.252599970E-2,2.519283797E-2
1.664622776E0,7.703999989E-3,-7.567999884E-3,-1.771200076E-2,2.074466700E-2
1.669619312E0,1.189099997E-2,-2.089000074E-3,-1.530800015E-2,1.949601678E-2
1.674615932E0,8.533000015E-3,-1.770999981E-3,-1.770900004E-2,1.973720377E-2
1.679612548E0,7.820000174E-4,3.315000096E-3,-1.292399969E-2,1.336527282E-2
1.684608943E0,8.699999889E-4,3.060000017E-3,-2.011300065E-2,2.036303747E-2
1.689605480E0,-1.429999946E-3,2.741999924E-3,-3.927600011E-2,3.939755891E-2
1.694602095E0,1.286000013E-3,1.130000019E-4,-3.927699849E-2,3.929820830E-2
1.699598473E0,1.376000000E-3,-2.185000107E-3,-3.687800094E-2,3.696829121E-2
1.704595086E0,-5.727999844E-3,2.888000105E-3,-3.686600178E-2,3.741994942E-2
1.709591702E0,-2.645999892E-3,3.440000000E-4,-3.446400166E-2,3.456713846E-2
1.714588242E0,2.456000075E-3,-9.170999750E-3,-2.966599911E-2,3.114820502E-2
1.719584631E0,2.324000001E-3,-8.307999931E-3,-3.682199866E-2,3.781908809E-2
1.724581244E0,-2.809999860E-4,-5.102999974E-3,-5.355700105E-2,5.380029676E-2
1.729577860E0,-2.399999939E-4,2.559999935E-3,-5.593299866E-2,5.599206675E-2
1.734574396E0,-9.774999693E-3,7.282999810E-3,-3.917599842E-2,4.102866751E-2
1.739571010E0,-1.841700077E-2,6.763000041E-3,-2.480999939E-2,3.163005148E-2
1.744567420E0,-1.197800040E-2,8.639999665E-3,-2.239999920E-2,2.683061781E-2
1.749563957E0,-6.198999938E-3,1.263900008E-2,-2.240700088E-2,2.646215433E-2
1.754560649E0,-1.019999967E-3,1.161199994E-2,-2.243399993E-2,2.528167904E-2
1.759557203E0,1.568599977E-2,3.490000032E-3,-2.007099986E-2,2.571139289E-2
1.764553588E0,2.387499996E-2,-1.543999999E-3,-1.532099955E-2,2.841007895E-2
1.769550215E0,1.720100082E-2,-1.376000000E-3,-1.774800010E-2,2.475397570E-2
1.774546756E0,3.920000046E-3,-3.714000108E-3,-2.974499948E-2,3.023119567E-2
1.779543379E0,-5.913000088E-3,3.757999977E-3,-4.171000049E-2,4.229432910E-2
1.784539766E0,-5.305000115E-3,8.334999904E-3,-4.170399904E-2,4.285835725E-2
1.789536379E0,-7.143000141E-3,3.046999918E-3,-2.734499983E-2,2.842632012E-2
1.794532910E0,-9.061000310E-3,5.670000101E-4,-8.185000159E-3,1.222364280E-2
1.799529523E0,-1.334500033E-2,5.319999764E-4,-8.175999857E-3,1.565947099E-2
1.804525930E0,-1.486700028E-2,-1.892999979E-3,-1.773699932E-2,2.322094510E-2
1.809522466E0,-1.134600025E-2,-1.796999946E-3,-2.249800041E-2,2.526105605E-2
1.814519106E0,1.668000012E-3,5.590999965E-3,-4.401699826E-2,4.440200041E-2
1.819515492E0,3.806899861E-2,-9.033000097E-3,-4.880499840E-2,6.255215116E-2
1.824512115E0,6.633900106E-2,-3.663799912E-2,3.845999949E-3,7.588147176E-2
1.829508730E0,-5.758599937E-2,4.687999841E-3,6.846000254E-2,8.958178729E-2
1.834505271E0,-1.567659974E-1,6.111599877E-2,-5.120800063E-2,1.758778058E-1
1.839501670E0,1.735109985E-1,-3.739200160E-2,-1.755850017E-1,2.496684225E-1
1.844498284E0,1.927720010E-1,-6.421200186E-2,1.340499986E-2,2.036269127E-1
1.849494848E0,-2.809909880E-1,7.531099766E-2,6.594800204E-2,2.982898267E-1
1.854491462E0,4.489300027E-2,-3.446599841E-2,-8.031000383E-3,5.716452998E-2
1.859488077E0,3.827400133E-2,-7.765999995E-3,1.551999943E-3,3.908476222E-2
1.864484468E0,-2.982399985E-2,1.932499930E-2,-6.552699953E-2,7.454337149E-2
1.869481004E0,1.805399917E-2,6.190999877E-3,-5.665000062E-3,1.990898268E-2
1.874477610E0,-7.497000042E-3,-3.905999940E-3,1.104400028E-2,1.390797567E-2
1.879473997E0,2.831999911E-3,5.752000026E-3,-8.093000390E-3,1.032484301E-2
1.884470610E0,5.550599843E-2,-1.408299990E-2,-1.529899985E-2,5.927314860E-2
1.889467151E0,-5.182600021E-2,1.578399912E-2,-7.998999953E-2,9.660988020E-2
1.894463749E0,3.399299830E-2,-6.686999928E-3,3.019900061E-2,4.595888967E-2
1.899460365E0,2.660200000E-2,-2.766099945E-2,-3.926499933E-2,5.490480368E-2
1.904456751E0,-1.027989984E-1,5.133200064E-2,2.540799975E-2,1.176782682E-1
1.909453356E0,1.936749965E-1,-9.678299725E-2,-1.046799961E-2,2.167637697E-1
1.914449896E0,-2.225809991E-1,8.380000293E-2,-1.230430007E-1,2.677766265E-1
1.919446281E0,1.055470034E-1,6.060000160E-4,6.865300238E-2,1.259117624E-1
1.924442884E0,1.115999967E-1,-8.813600242E-2,-7.756800205E-2,1.619855213E-1
1.929439500E0,-2.764549851E-1,1.373399943E-1,-4.158499837E-2,3.114786428E-1
1.934436026E0,2.570109963E-1,-6.336800009E-2,9.735900164E-2,2.820442002E-1
1.939432639E0,4.649399966E-2,-9.419900179E-2,-1.614789963E-1,1.926411435E-1
1.944429021E0,-3.169060051E-1,1.706340015E-1,-8.464600146E-2,3.697435924E-1
1.949425558E0,2.633109987E-1,-4.472799972E-2,1.284990013E-1,2.963870262E-1
1.954422173E0,1.483500004E-1,-1.611330062E-1,-1.256169975E-1,2.524899966E-1
1.959418537E0,-3.839010000E-1,1.760749966E-1,-1.301620007E-1,4.419553469E-1
1.964415150E0,6.322699785E-2,8.950100094E-2,1.285559982E-1,1.689222516E-1
1.969411765E0,3.312520087E-1,-2.365390062E-1,-3.460799903E-2,4.085049673E-1
1.974408282E0,-2.498980016E-1,8.876999840E-3,-2.188190073E-1,3.322793557E-1
1.979404895E0,-2.524710000E-1,2.601450086E-1,5.213300139E-2,3.662442916E-1
1.984401272E0,3.266710043E-1,-7.795699686E-2,1.452129930E-1,3.658934978E-1
1.989397808E0,1.895059943E-1,-2.585389912E-1,-1.544280052E-1,3.558130698E-1
1.994394405E0,-3.582580090E-1,1.304280013E-1,-1.994400024E-1,4.302750040E-1
1.999391020E0,-1.598200053E-1,2.848609984E-1,1.072430015E-1,3.437866837E-1
2.004387407E0,3.539130092E-1,-1.416669935E-1,1.426369995E-1,4.070248994E-1
2.009383928E0,1.665699929E-1,-3.097899854E-1,-1.473059952E-1,3.813324715E-1
2.014380544E0,-3.288170099E-1,1.145879999E-1,-1.873389930E-1,3.954073014E-1
2.019377150E0,-2.000250071E-1,3.444930017E-1,8.820900321E-2,4.080027695E-1
2.024373537E0,2.882370055E-1,-4.148599878E-2,1.665959954E-1,3.354934949E-1
2.029370134E0,2.715170085E-1,-3.639520109E-1,-9.239000082E-2,4.633772377E-1
2.034366675E0,-2.014809996E-1,-5.483299866E-2,-2.354110032E-1,3.146737857E-1
2.039363288E0,-3.252199888E-1,3.766359985E-1,-1.701599918E-2,4.979078838E-1
2.044359670E0,8.272799850E-2,1.866369992E-1,1.883540004E-1,2.777670260E-1
2.049356283E0,3.486959934E-1,-3.200420141E-1,2.727800049E-2,4.740884685E-1
2.054352814E0,7.549799979E-2,-3.096309900E-1,-2.142349929E-1,3.840155337E-1
2.059349428E0,-3.137719929E-1,1.797699928E-1,-1.535270065E-1,3.928621331E-1
2.064345819E0,-2.102649957E-1,4.063520133E-1,1.026310027E-1,4.688991895E-1
2.069342433E0,2.213519961E-1,1.753799990E-2,1.712840050E-1,2.804326978E-1
2.074338963E0,3.154819906E-1,-3.959830105E-1,-3.985999897E-2,5.078584946E-1
2.079335577E0,-3.404000029E-2,-2.255949974E-1,-2.307769954E-1,3.245147856E-1
2.084331963E0,-3.396089971E-1,2.709490061E-1,-1.007049978E-1,4.459698772E-1
2.089328587E0,-1.527000070E-1,3.771579862E-1,1.384640038E-1,4.298112597E-1
2.094325127E0,2.523869872E-1,-6.903400272E-2,1.424639970E-1,2.979276343E-1
2.099321750E0,2.912339866E-1,-4.225130081E-1,-7.328899950E-2,5.183683579E-1
2.104318136E0,-5.873500183E-2,-1.922879964E-1,-2.353329957E-1,3.095255932E-1
2.109314673E0,-3.239290118E-1,3.085649908E-1,-9.094999731E-2,4.565241070E-1
2.114311380E0,-1.408039927E-1,3.851889968E-1,1.337040067E-1,4.313619003E-1
2.119307997E0,2.417429984E-1,-6.407400221E-2,1.185029969E-1,2.767455786E-1
2.124304305E0,2.909570038E-1,-4.227879941E-1,-9.485100210E-2,5.219218128E-1
2.129300919E0,-4.224200174E-2,-2.115550041E-1,-2.520999908E-1,3.318046291E-1
2.134297444E0,-3.279959857E-1,2.887769938E-1,-1.196449995E-1,4.530876788E-1
2.139294057E0,-1.684350073E-1,4.006460011E-1,1.170379966E-1,4.500949484E-1
2.144290449E0,2.307620049E-1,-3.317400068E-2,1.449320018E-1,2.745121170E-1
2.149287062E0,3.168160021E-1,-4.208100140E-1,-5.891299993E-2,5.300228190E-1
2.154283613E0,6.820000126E-4,-2.552599907E-1,-2.329719961E-1,3.455923595E-1
2.159280226E0,-3.127039969E-1,2.297440022E-1,-1.076219976E-1,4.026767818E-1
2.164276613E0,-2.070890069E-1,4.114539921E-1,1.387770027E-1,4.810813870E-1
2.169273230E0,1.665749997E-1,3.897599876E-2,1.978009939E-1,2.615178621E-1
2.174269771E0,3.129760027E-1,-3.979679942E-1,1.063000038E-2,5.064044822E-1
2.179266389E0,6.426600367E-2,-3.043409884E-1,-2.042140067E-1,3.720979938E-1
2.184263005E0,-2.807289958E-1,1.870619953E-1,-1.602140069E-1,3.734561382E-1
2.189259391E0,-2.418839931E-1,4.417729974E-1,5.992599949E-2,5.072103831E-1
2.194256010E0,1.256439984E-1,1.241469979E-1,1.715849936E-1,2.462525156E-1
2.199252550E0,3.187969923E-1,-3.461320102E-1,5.812999792E-3,4.706088416E-1
2.204249163E0,1.127759963E-1,-3.382810056E-1,-2.187930048E-1,4.183573150E-1
2.209245550E0,-2.531949878E-1,1.226359978E-1,-1.987169981E-1,3.444353860E-1
2.214242179E0,-2.911309898E-1,4.525569975E-1,2.158699930E-2,5.385453442E-1
2.219238719E0,5.877999961E-2,2.010280043E-1,1.859599948E-1,2.800865340E-1
2.224235332E0,3.313339949E-1,-3.045659959E-1,5.361200124E-2,4.532294217E-1
2.229231709E0,1.768420041E-1,-3.841910064E-1,-1.783549935E-1,4.590058033E-1
2.234228245E0,-2.089810073E-1,2.777500078E-2,-2.061599940E-1,2.948668432E-1
2.239224933E0,-3.080010116E-1,4.184400141E-1,-1.195999980E-2,5.197111796E-1
2.244221473E0,-1.396100037E-2,2.606779933E-1,1.764640063E-1,3.150991451E-1
2.249217858E0,2.934600115E-1,-2.451359928E-1,8.718100190E-2,3.921874047E-1
2.254214491E0,2.213049978E-1,-4.305149913E-1,-1.401160061E-1,5.039360624E-1
2.259211032E0,-1.467099935E-1,-9.631200135E-2,-2.397100031E-1,2.970870401E-1
2.264207649E0,-3.323599994E-1,3.699550033E-1,-8.350499719E-2,5.042846004E-1
2.269204036E0,-1.054420024E-1,3.528049886E-1,1.338050067E-1,3.917820257E-1
2.274200640E0,2.525640130E-1,-1.248579994E-1,9.947899729E-2,2.987878371E-1
2.279197256E0,2.840999961E-1,-4.257009923E-1,-1.041539982E-1,5.222855522E-1
2.284193796E0,-3.435799852E-2,-1.972929984E-1,-2.517890036E-1,3.217183576E-1
2.289190176E0,-2.945620120E-1,2.970120013E-1,-1.217719987E-1,4.356734184E-1
2.294186789E0,-1.714999974E-1,4.225420058E-1,1.172079965E-1,4.708414916E-1
2.299183404E0,1.919379979E-1,1.560200006E-2,1.546020061E-1,2.469522175E-1
2.304179945E0,3.242450058E-1,-4.025070071E-1,-1.818099990E-2,5.171820408E-1
2.309176558E0,6.965000182E-2,-3.083069921E-1,-2.043039948E-1,3.763568073E-1
2.314172945E0,-2.736339867E-1,1.761579961E-1,-1.507329941E-1,3.586469486E-1
2.319169558E0,-2.620950043E-1,4.413729906E-1,6.223500147E-2,5.170851995E-1
2.324166099E0,7.560399920E-2,1.595949978E-1,1.810970008E-1,2.529479229E-1
2.329162483E0,3.083429933E-1,-3.114880025E-1,4.403600097E-2,4.404989746E-1
2.334159111E0,1.748449951E-1,-3.785060048E-1,-1.663099974E-1,4.488837079E-1
2.339155726E0,-1.894689947E-1,2.331699990E-2,-2.036989927E-1,2.791692356E-1
2.344152267E0,-3.144530058E-1,4.288380146E-1,-1.670899987E-2,5.320356438E-1
2.349148880E0,-4.409199953E-2,3.276450038E-1,1.884289980E-1,3.805270558E-1
2.354145267E0,2.752070129E-1,-1.622480005E-1,1.397189945E-1,3.486899927E-1
2.359141866E0,2.619639933E-1,-4.265620112E-1,-6.863400340E-2,5.052632083E-1
2.364138482E0,-6.383600086E-2,-1.792560071E-1,-2.042610049E-1,2.791600065E-1
2.369135031E0,-3.213750124E-1,2.987630069E-1,-8.864899725E-2,4.476604490E-1
2.374131416E0,-1.887619942E-1,4.097490013E-1,1.216500029E-1,4.672516000E-1
2.379128025E0,1.739380062E-1,3.899999894E-3,1.591420025E-1,2.357876522E-1
2.384124566E0,3.126530051E-1,-4.060469866E-1,-2.075600065E-2,5.128906984E-1
2.389121179E0,8.069700003E-2,-3.258970082E-1,-2.188419998E-1,4.007651265E-1
2.394117561E0,-2.826879919E-1,1.626700014E-1,-1.700260043E-1,3.678082003E-1
2.399114097E0,-2.320899963E-1,3.645499945E-1,7.892499864E-2,4.393081154E-1
2.404110794E0,2.661159933E-1,-4.468100145E-2,1.524779946E-1,3.099413696E-1
2.409107335E0,1.101190001E-1,-1.754260063E-1,-1.112350002E-1,2.351036009E-1
2.414103723E0,-2.393720001E-1,1.056960002E-1,-7.018999755E-2,2.709192401E-1
2.419100337E0,1.524740010E-1,-1.801799983E-2,3.047600016E-2,1.565303673E-1
2.424096952E0,-4.708499834E-2,7.899999764E-5,-8.226799965E-2,9.478938272E-2
2.429093493E0,-9.339000098E-3,2.174700052E-2,-3.429599851E-2,4.166970684E-2
2.434090106E0,2.735600062E-2,-8.857999928E-3,-2.716000006E-2,3.955351483E-2
2.439086493E0,-6.817600131E-2,3.256500140E-2,-8.703599870E-2,1.152549849E-1
2.444083010E0,1.295209974E-1,-4.650500044E-2,-3.671399876E-2,1.424300584E-1
2.449079626E0,-1.644430012E-1,5.336000025E-2,-5.116900057E-2,1.802971350E-1
2.454076246E0,8.247499913E-2,-2.521499991E-2,-1.108760014E-1,1.404685352E-1
2.459072633E0,9.907499701E-2,-2.967599966E-2,2.792800032E-2,1.071283958E-1
2.464069251E0,-1.998219937E-1,6.593099982E-2,-2.245499939E-2,2.116127428E-1
2.469065792E0,6.920000166E-2,-2.358499914E-2,-1.156660020E-1,1.368339009E-1
2.474062400E0,1.810660064E-1,-6.398600340E-2,-5.557000171E-3,1.921197220E-1
2.479058787E0,-1.128709987E-1,2.541499957E-2,6.614299864E-2,1.332692043E-1
2.484055400E0,-1.398909986E-1,3.948799893E-2,-2.236099914E-2,1.470673581E-1
2.489052015E0,8.568300307E-2,-1.434400026E-2,-1.179959998E-1,1.465277561E-1
2.494048556E0,1.079680026E-1,-2.920299955E-2,-6.539300084E-2,1.295613728E-1
2.499044940E0,-3.506400064E-2,-7.025999948E-3,3.987500072E-2,5.356178206E-2
2.504041549E0,-7.334399968E-2,5.309999920E-3,6.627199799E-2,9.899250530E-2
2.509038089E0,-9.919999866E-4,4.230999853E-3,-2.702900022E-2,2.737612604E-2
2.514034693E0,3.466400132E-2,1.091300044E-2,-1.012770012E-1,1.075998027E-1
2.519031079E0,1.053600013E-2,1.526200026E-2,-7.740099728E-2,7.959177301E-2
2.524027693E0,7.918000221E-3,2.511000028E-3,8.759999648E-3,1.207217638E-2
2.529024219E0,2.884000074E-3,-7.418000139E-3,4.705100134E-2,4.771939762E-2
2.534020833E0,-1.656999998E-2,4.724000115E-3,-8.319999906E-4,1.725031305E-2
2.539017448E0,-1.075199991E-2,1.857399940E-2,-7.026399672E-2,7.346855240E-2
2.544013835E0,6.769999862E-3,1.259300020E-2,-7.986599952E-2,8.113565450E-2
2.549010371E0,8.747999556E-3,-2.700000005E-5,-3.201200068E-2,3.318578631E-2
2.554006991E0,-3.684000112E-3,-4.199999967E-5,-5.685999990E-3,6.775265065E-3
2.559003607E0,-3.126000054E-3,6.943999790E-3,-2.722899988E-2,2.827382967E-2
2.563999989E0,-2.680999925E-3,8.710999973E-3,-6.794299930E-2,6.855158959E-2
2.568996602E0,-1.188100036E-2,8.255000226E-3,-6.316199899E-2,6.479769529E-2
2.573993146E0,-6.136000156E-3,7.440000190E-4,-2.484700084E-2,2.560424739E-2
2.578989760E0,3.828000044E-3,-1.122799981E-2,-8.080000058E-3,1.435297757E-2
2.583986146E0,-1.245000050E-3,-1.525000017E-2,-3.200199828E-2,3.547168482E-2
2.588982780E0,-9.510000236E-4,-4.490999971E-3,-6.547400355E-2,6.563473641E-2
2.593979395E0,-6.220000214E-4,5.654000212E-3,-7.263000309E-2,7.285239840E-2
2.598975945E0,-7.598999888E-3,-4.201999865E-3,-3.193200007E-2,3.309160363E-2
2.603972329E0,-7.071999833E-3,-1.364000025E-3,-7.820000174E-4,7.244667124E-3
2.608968943E0,-1.857999945E-3,3.428000025E-3,-5.563000217E-3,6.793402637E-3
2.613965558E0,6.280000089E-4,1.021999959E-2,-2.951600030E-2,3.124159166E-2
2.618962099E0,5.439999979E-3,1.910500042E-2,-4.151099920E-2,4.601910142E-2
2.623958804E0,7.364999969E-3,1.049899962E-2,-1.523299981E-2,1.991272208E-2
2.628955114E0,6.686000153E-3,1.639999973E-4,1.106300019E-2,1.292746948E-2
2.633951727E0,3.624999896E-3,2.501999959E-3,1.472000033E-3,4.644072796E-3
2.638948267E0,3.236999968E-3,2.171000000E-3,-2.009600028E-2,2.047048210E-2
2.643944881E0,5.417000037E-3,2.033999888E-3,-3.686400130E-2,3.731535391E-2
2.648941481E0,3.600000055E-4,9.243999608E-3,-3.686900064E-2,3.801189731E-2
2.653937868E0,-1.867000014E-3,1.104700007E-2,-2.730700001E-2,2.951599819E-2
2.658934404E0,-1.526999986E-3,-1.903999946E-3,-2.494099922E-2,2.506013542E-2
2.663931015E0,-1.323999953E-3,-8.964999579E-3,-3.450800106E-2,3.567809314E-2
2.668927401E0,-1.230999944E-3,-9.219999774E-4,-5.602499843E-2,5.604610507E-2
2.673924006E0,-5.791000091E-3,4.205000121E-3,-5.840300024E-2,5.883985167E-2
2.678920621E0,-2.664000029E-3,1.714000013E-3,-4.163299873E-2,4.175333850E-2
2.683917162E0,2.454000060E-3,6.465999875E-3,-3.444499895E-2,3.513245257E-2
2.688913546E0,7.120999973E-3,1.318500005E-2,-3.925099969E-2,4.201421002E-2
2.693910155E0,8.998000063E-3,1.216099970E-2,-4.408299923E-2,4.660648817E-2
2.698906695E0,5.936999805E-3,8.736999705E-3,-4.413300008E-2,4.537956397E-2
2.703903309E0,7.440000190E-4,-1.471000025E-3,-4.655599967E-2,4.658517449E-2
2.708899943E0,-1.603999990E-3,-6.008000113E-3,-4.415300116E-2,4.458874738E-2
2.713896330E0,1.031999942E-3,-3.084999975E-3,-3.934299946E-2,3.947725744E-2
2.718892943E0,3.329999978E-3,-2.715999959E-3,-4.411900043E-2,4.432777634E-2
2.723889478E0,6.500000018E-4,4.815999884E-3,-3.693100065E-2,3.724936461E-2
2.728885863E0,5.830000155E-4,6.895000115E-3,-2.497199923E-2,2.591296319E-2
2.733882476E0,4.970000009E-4,-8.130000206E-4,-2.259800024E-2,2.261808111E-2
2.738879092E0,4.140000092E-4,-7.868000306E-3,-2.977599949E-2,3.080076249E-2
2.743875722E0,3.499999875E-4,-4.720999859E-3,-3.693500161E-2,3.723714119E-2
2.748872263E0,-2.089000074E-3,-6.612000056E-3,-3.452499956E-2,3.521445812E-2
2.753868647E0,5.355999805E-3,-1.313500013E-2,-2.970900014E-2,3.292172006E-2
2.758865261E0,2.578000072E-3,-2.353999997E-3,-2.488799952E-2,2.513165177E-2
2.763861801E0,2.999999924E-5,-6.874999963E-3,-2.488300018E-2,2.581530985E-2
2.768858415E0,4.782000091E-3,-3.829000052E-3,-2.964900061E-2,3.027527050E-2
2.773855029E0,-4.400000034E-4,3.757999977E-3,-2.724999934E-2,2.751142723E-2
2.778851416E0,-7.613999769E-3,-1.281999983E-3,-3.204699978E-2,3.296402147E-2
2.783847938E0,1.970000012E-4,-1.190999988E-3,-3.442500159E-2,3.444616125E-2
2.788844554E0,4.947999958E-3,3.687999910E-3,-3.202800080E-2,3.261712560E-2
2.793840945E0,-2.681999933E-3,3.353999928E-3,-3.204999864E-2,3.233643227E-2
2.798837789E0,-7.263999898E-3,5.545999855E-3,-2.965899929E-2,3.103514215E-2
2.803834099E0,-1.135300007E-2,5.148999859E-3,-2.726100013E-2,2.997607276E-2
2.808830731E0,-1.030400023E-2,4.776999820E-3,-3.443799913E-2,3.626248657E-2
2.813827347E0,2.530999947E-3,4.459999967E-3,-4.161199927E-2,4.192679387E-2
2.818823719E0,9.597999975E-3,1.795000047E-3,-4.401800036E-2,4.508800267E-2
2.823820333E0,1.695999992E-3,-2.923999913E-3,-3.684800118E-2,3.700272129E-2
2.828816873E0,-3.147999989E-3,-2.573000034E-3,-3.444299847E-2,3.468213339E-2
2.833813262E0,1.994000049E-3,-2.259999979E-3,-3.203000128E-2,3.217148766E-2
2.838809875E0,4.298000131E-3,4.130000016E-4,-3.441800177E-2,3.468778200E-2
2.843806506E0,3.913000226E-3,2.967000008E-3,-3.920799866E-2,3.951432423E-2
2.848803121E0,1.175999991E-3,5.269999965E-4,-4.161199927E-2,4.163194913E-2
2.853799676E0,-8.500999771E-3,-4.091000184E-3,-4.400099814E-2,4.500101240E-2
2.858796289E0,-2.878000028E-3,-3.622000106E-3,-4.397000000E-2,4.421269805E-2
2.863792676E0,2.261999995E-3,1.490999945E-3,-4.155400023E-2,4.164222208E-2
2.868789289E0,-5.013000220E-3,8.553000167E-3,-5.113900080E-2,5.209108740E-2
2.873785829E0,2.610000083E-3,3.171999939E-3,-4.396799952E-2,4.415946858E-2
2.878782443E0,7.067999803E-3,3.020999953E-3,-3.679500148E-2,3.758929629E-2
2.883778830E0,-5.524000153E-3,1.243900042E-2,-3.441999853E-2,3.701323557E-2
2.888775453E0,-7.459000219E-3,1.886000042E-3,-3.444499895E-2,3.529379029E-2
2.893772068E0,-2.046999987E-3,-2.973000053E-3,-3.443500027E-2,3.462366506E-2
2.898768604E0,2.900999971E-3,-5.022000056E-3,-3.441999853E-2,3.490519423E-2
2.903764988E0,2.739999909E-3,3.910000087E-4,-3.440099955E-2,3.451216090E-2
2.908761602E0,2.489000093E-3,5.237000063E-3,-3.440500051E-2,3.489018990E-2
2.913758147E0,-2.900000072E-5,4.774000030E-3,-3.681699932E-2,3.712523880E-2
2.918754761E0,2.460000105E-3,-2.718999982E-3,-3.922000155E-2,3.939102795E-2
2.923751371E0,4.739999771E-3,-4.670999944E-3,-3.920599818E-2,3.976677170E-2
2.928747758E0,2.034999896E-3,7.803999819E-3,-3.680099919E-2,3.767435705E-2
2.933744294E0,6.742000114E-3,4.838999826E-3,-2.964100055E-2,3.078082843E-2
2.938740915E0,3.849999979E-3,4.397000186E-3,-3.206000105E-2,3.258833806E-2
2.943737530E0,-3.472999902E-3,4.104000051E-3,-3.686200082E-2,3.725200195E-2
2.948733907E0,-5.799999926E-4,-5.729000084E-3,-3.925500065E-2,3.967509191E-2
2.953730443E0,1.959000016E-3,-7.526999805E-3,-3.683599830E-2,3.764816300E-2
2.958727053E0,6.668000016E-3,2.794000087E-3,-3.441800177E-2,3.516912718E-2
2.963723669E0,8.473999798E-3,1.222200040E-2,-4.161800072E-2,4.419551957E-2
2.968720055E0,5.579999997E-4,4.104999825E-3,-4.884700105E-2,4.902236121E-2
2.973716659E0,-1.772999996E-3,1.492999960E-3,-4.885200039E-2,4.890695778E-2
2.978713199E0,3.280000063E-3,3.891000059E-3,-4.405900091E-2,4.435193167E-2
2.983709565E0,2.999000018E-3,3.676000051E-3,-3.449700028E-2,3.482168872E-2
2.988706178E0,4.360000021E-4,1.057000016E-3,-3.450699896E-2,3.452593695E-2
2.993702794E0,-1.906999969E-3,3.450999968E-3,-3.929600120E-2,3.949331285E-2
2.998699390E0,3.140999936E-3,5.549000110E-3,-4.169400036E-2,4.217874997E-2
3.003695931E0,2.972000046E-3,-6.785999984E-3,-4.649800062E-2,4.708446285E-2
3.008692300E0,5.220000166E-3,-8.472000249E-3,-5.366099998E-2,5.457587479E-2
3.013688914E0,1.039999988E-4,-2.913000062E-3,-5.842899904E-2,5.850166078E-2
3.018685449E0,-2.168999985E-3,-1.080000002E-4,-5.841299891E-2,5.845335463E-2
3.023682063E0,5.409999867E-4,2.455000067E-3,-5.361000076E-2,5.366890988E-2
3.028678678E0,-4.172000103E-3,-1.999999995E-6,-4.403499886E-2,4.423219092E-2
3.033675061E0,-3.705000039E-3,1.130000019E-4,-4.162700102E-2,4.179170980E-2
3.038671597E0,1.505000051E-3,2.607000060E-3,-4.400999844E-2,4.411282622E-2
3.043668207E0,-9.130000253E-4,2.501999959E-3,-4.401300102E-2,4.409351236E-2
3.048664823E0,4.058999941E-3,-2.381999977E-3,-3.682899848E-2,3.712848682E-2
3.053661228E0,-1.093000057E-3,-2.076999983E-3,-2.964299917E-2,2.973576934E-2
3.058657842E0,-1.070499979E-2,2.964999992E-3,-3.442500159E-2,3.617276572E-2
3.063654382E0,2.167999977E-3,-1.986999996E-3,-4.638300091E-2,4.647613545E-2
3.068650996E0,-9.882000275E-3,-1.688000048E-3,-4.876999930E-2,4.978971887E-2
3.073647611E0,-1.339500025E-2,-1.411000034E-3,-4.873200133E-2,5.055912288E-2
3.078644003E0,3.377600014E-2,-1.541899983E-2,-3.432099894E-2,5.056179100E-2
3.083640539E0,1.877599955E-2,-2.107599936E-2,1.834199950E-2,3.366251408E-2
3.088637150E0,-9.151899815E-2,1.407899987E-2,1.595100015E-2,9.395945756E-2
3.093633765E0,-7.442100346E-2,2.924999967E-2,-1.276009977E-1,1.505857325E-1
3.098630152E0,2.111770064E-1,-5.172900110E-2,-1.586260051E-1,2.691353322E-1
3.103626688E0,7.382299751E-2,-2.717499994E-2,5.427699909E-2,9.557357487E-2
3.108623304E0,-3.038319945E-1,9.457500279E-2,4.703700170E-2,3.216687607E-1
3.113619924E0,1.316030025E-1,-4.314099997E-2,-7.003299892E-2,1.551938050E-1
3.118616311E0,7.190299779E-2,-8.092000149E-3,-4.142000154E-2,8.337348550E-2
3.123612924E0,-6.834799796E-2,3.123399988E-2,-8.700100332E-2,1.149616725E-1
3.128609444E0,4.317300022E-2,-1.399299968E-2,-1.033399999E-2,4.654571456E-2
3.133606058E0,-3.198599815E-2,-9.089999949E-4,-1.754700020E-2,3.649421290E-2
3.138602444E0,2.369300090E-2,-9.990000399E-4,-3.903700039E-2,4.567541671E-2
3.143599073E0,3.861600161E-2,-3.198999912E-3,-6.540299952E-2,7.601961278E-2
3.148595613E0,-6.761900336E-2,4.046100006E-2,-8.460500091E-2,1.156175952E-1
3.153592241E0,7.214500010E-2,-1.764100045E-2,8.779999800E-3,7.478766163E-2
3.158588627E0,-5.620700121E-2,1.724299975E-2,-7.270199805E-2,9.349935051E-2
3.163585251E0,2.497100085E-2,1.586499996E-2,6.349000148E-3,3.025820402E-2
3.168581791E0,8.802700043E-2,-4.776899889E-2,-1.062560007E-1,1.460170118E-1
3.173578176E0,-1.925220042E-1,1.052120030E-1,-6.794399768E-2,2.296751500E-1
3.178575020E0,2.313109934E-1,-8.051099628E-2,3.266499937E-2,2.470906684E-1
3.183571407E0,-1.377629936E-1,2.909200080E-2,-1.327050030E-1,1.934828280E-1
3.188568020E0,-5.928099900E-2,8.191999793E-2,4.701099917E-2,1.115130349E-1
3.193564560E0,2.787199914E-1,-1.310980022E-1,-4.888899997E-2,3.118680075E-1
3.198560945E0,-2.766129971E-1,9.088200331E-2,-1.998129934E-1,3.531281934E-1
3.203557572E0,1.012000022E-3,7.896699756E-2,6.617300212E-2,1.030324078E-1
3.208554419E0,3.173989952E-1,-1.743309945E-1,-1.544499956E-2,3.624527083E-1
3.213550723E0,-2.889960110E-1,6.786599755E-2,-1.926510036E-1,3.538910810E-1
3.218547337E0,-9.433499724E-2,1.391340047E-1,6.383000314E-2,1.798099894E-1
3.223543714E0,3.733879924E-1,-1.815190017E-1,1.572199911E-2,4.154695201E-1
3.228540251E0,-1.489509940E-1,-4.637499899E-2,-2.262070030E-1,2.747847291E-1
3.233536880E0,-3.087550104E-1,2.263890058E-1,1.642000047E-3,3.828633366E-1
3.238533267E0,2.990159988E-1,-5.861499906E-2,1.571609974E-1,3.428496241E-1
3.243529866E0,1.952099949E-1,-2.433629930E-1,-1.353099942E-1,3.400607049E-1
3.248526482E0,-3.793900013E-1,1.225399971E-1,-1.947560012E-1,4.437146876E-1
3.253523022E0,-1.025260016E-1,2.177920043E-1,1.096009985E-1,2.644944556E-1
3.258519650E0,3.945969939E-1,-1.814170033E-1,9.719900042E-2,4.450466968E-1
3.263516036E0,4.805000126E-2,-2.143290043E-1,-2.022580057E-1,2.985867137E-1
3.268512573E0,-3.823570013E-1,2.116409987E-1,-1.418170035E-1,4.594571267E-1
3.273509183E0,-2.418899909E-2,2.225620002E-1,1.431279927E-1,2.657152120E-1
3.278505798E0,3.848330081E-1,-2.175720036E-1,6.114400178E-2,4.462875864E-1
3.283502190E0,5.832000077E-2,-2.518410087E-1,-2.190179974E-1,3.388126316E-1
3.288498803E0,-3.607810140E-1,2.087150067E-1,-1.536770016E-1,4.442313754E-1
3.293495330E0,-9.768900275E-2,3.083890080E-1,1.312189996E-1,3.490921761E-1
3.298491943E0,3.533700109E-1,-1.535499990E-1,1.041869968E-1,3.991276701E-1
3.303488559E0,1.947620064E-1,-3.562200069E-1,-1.785199940E-1,4.435023345E-1
3.308484940E0,-2.836000025E-1,4.613500088E-2,-2.327969968E-1,3.697997316E-1
3.313481554E0,-2.589069903E-1,3.826909959E-1,3.330300003E-2,4.632432599E-1
3.318478094E0,2.033360004E-1,6.768500060E-2,1.762959957E-1,2.775014711E-1
3.323474722E0,3.324050009E-1,-3.764100075E-1,-5.171199888E-2,5.048283958E-1
3.328471108E0,-5.210199952E-2,-2.100149989E-1,-2.738119960E-1,3.489898670E-1
3.333467722E0,-3.537209928E-1,2.950780094E-1,-1.221949980E-1,4.765723344E-1
3.338464262E0,-1.010619998E-1,3.345800042E-1,1.360670030E-1,3.750620433E-1
3.343460857E0,3.069660068E-1,-1.559070051E-1,1.017749980E-1,3.590170940E-1
3.348457243E0,2.432519943E-1,-4.134359956E-1,-1.377499998E-1,4.990750621E-1
3.353453843E0,-1.913090050E-1,-6.864400208E-2,-2.398169935E-1,3.143617737E-1
3.358450383E0,-3.325740099E-1,3.880189955E-1,-2.378600091E-2,5.115955305E-1
3.363446996E0,4.315999802E-3,2.735559940E-1,1.886889935E-1,3.323477787E-1
3.368443378E0,3.174679875E-1,-2.405380011E-1,6.580299884E-2,4.037009880E-1
3.373439991E0,1.882050037E-1,-3.855110109E-1,-1.711020023E-1,4.618611892E-1
3.378436532E0,-2.201530039E-1,1.694300026E-2,-2.228620052E-1,3.137226224E-1
3.383433121E0,-3.134540021E-1,4.206829965E-1,-1.423900016E-2,5.248145807E-1
3.388429508E0,3.622600064E-2,2.436770052E-1,1.765870005E-1,3.031068701E-1
3.393426145E0,3.227699995E-1,-2.653970122E-1,4.416099936E-2,4.201978588E-1
3.398422761E0,1.690959930E-1,-3.794240057E-1,-1.926860064E-1,4.579125769E-1
3.403419291E0,-2.304120064E-1,2.742700092E-2,-2.252819985E-1,3.234098204E-1
3.408415676E0,-3.156229854E-1,4.230720103E-1,-7.093000226E-3,5.278807682E-1
3.413412299E0,1.495200023E-2,2.553369999E-1,1.717679948E-1,3.080986690E-1
3.418408840E0,3.151479959E-1,-2.619970143E-1,3.456300125E-2,4.112849327E-1
3.423405438E0,1.931280047E-1,-4.049929976E-1,-1.879359931E-1,4.864542032E-1
3.428401825E0,-1.964969933E-1,-1.521699969E-2,-2.372740060E-1,3.084502867E-1
3.433398438E0,-3.205429912E-1,4.104250073E-1,-4.055099934E-2,5.223417266E-1
3.438395049E0,-2.061700076E-2,2.893469930E-1,1.599009931E-1,3.312326534E-1
3.443391589E0,3.063319921E-1,-2.187730074E-1,7.534100115E-2,3.838973621E-1
3.448387950E0,2.400469929E-1,-4.325590134E-1,-1.448860019E-1,5.154821165E-1
3.453384563E0,-1.320839971E-1,-1.076240018E-1,-2.516950071E-1,3.039399359E-1
3.458381178E0,-3.215790093E-1,3.596810102E-1,-8.590400219E-2,4.900642672E-1
3.463377710E0,-8.360700309E-2,3.601759970E-1,1.338180006E-1,3.932227576E-1
3.468374323E0,2.750580013E-1,-1.180030033E-1,9.704300016E-2,3.146409966E-1
3.473370710E0,2.856419981E-1,-4.288879931E-1,-1.138229966E-1,5.277233520E-1
3.478367323E0,-5.918600038E-2,-1.905609965E-1,-2.590470016E-1,3.269890290E-1
3.483363864E0,-3.267860115E-1,3.055900037E-1,-1.242239997E-1,4.643338775E-1
3.488360491E0,-1.626220047E-1,4.160139859E-1,1.076029986E-1,4.594474488E-1
3.493356878E0,2.192469984E-1,-1.432000007E-2,1.330370009E-1,2.568523941E-1
3.498353414E0,3.157370090E-1,-4.106940031E-1,-5.886700004E-2,5.213681490E-1
3.503350030E0,2.352800034E-2,-2.748399973E-1,-2.473279983E-1,3.704885014E-1
3.508346416E0,-2.990140021E-1,2.166370004E-1,-1.602600068E-1,4.025223387E-1
3.513343030E0,-2.254800051E-1,4.376530051E-1,7.418099791E-2,4.978797104E-1
3.518339570E0,1.450800002E-1,8.686800301E-2,1.642830074E-1,2.357608172E-1
3.523336198E0,3.219240010E-1,-3.731780052E-1,-8.611000143E-3,4.929209220E-1
3.528332813E0,1.010489985E-1,-3.412869871E-1,-2.187699974E-1,4.177894438E-1
3.533329195E0,-2.641089857E-1,1.173959970E-1,-1.771200001E-1,3.389791599E-1
3.538325808E0,-2.725529969E-1,4.427309930E-1,3.362600133E-2,5.209861575E-1
3.543322348E0,7.572700083E-2,1.991229951E-1,1.716440022E-1,2.735803526E-1
3.548318977E0,3.182579875E-1,-3.039059937E-1,3.208599985E-2,4.412216121E-1
3.553315363E0,1.648599952E-1,-3.930529952E-1,-1.806900054E-1,4.629453025E-1
3.558311977E0,-2.104499936E-1,2.209299989E-2,-2.084330022E-1,2.970212398E-1
3.563308531E0,-3.046500087E-1,4.276329875E-1,-1.900799945E-2,5.253978529E-1
3.568305145E0,-1.086500008E-2,2.787620127E-1,1.693679988E-1,3.263614974E-1
3.573301546E0,2.963089943E-1,-2.404379994E-1,7.045199722E-2,3.880372863E-1
3.578298160E0,2.237990052E-1,-4.237439930E-1,-1.472769976E-1,5.013337016E-1
3.583294700E0,-1.540140063E-1,-5.884499848E-2,-2.349070013E-1,2.869918940E-1
3.588291304E0,-3.295750022E-1,3.920559883E-1,-5.967000127E-2,5.156433739E-1
3.593287690E0,-6.949300319E-2,3.274169862E-1,1.527729928E-1,3.679276392E-1
3.598284304E0,2.784639895E-1,-1.719370037E-1,8.255100250E-2,3.375191768E-1
3.603280863E0,2.480629981E-1,-4.232420027E-1,-1.305589974E-1,5.076560801E-1
3.608277477E0,-1.175779998E-1,-1.207540035E-1,-2.445970029E-1,2.970417634E-1
3.613273858E0,-3.298160136E-1,3.620330095E-1,-8.836500347E-2,4.976493511E-1
3.618270472E0,-9.601999819E-2,3.647210002E-1,1.385339946E-1,4.017871522E-1
3.623267027E0,2.684710026E-1,-1.186280027E-1,1.137410030E-1,3.147797611E-1
3.628263640E0,2.700429857E-1,-4.367049932E-1,-9.950499982E-2,5.230064151E-1
3.633260027E0,-8.061499894E-2,-1.786510050E-1,-2.446819991E-1,3.135031744E-1
3.638256649E0,-3.271130025E-1,3.259570003E-1,-1.026839986E-1,4.730696418E-1
3.643253265E0,-1.388670057E-1,3.891179860E-1,1.266999990E-1,4.321455102E-1
3.648249571E0,2.460349947E-1,-7.006400079E-2,1.282390058E-1,2.861597901E-1
3.653246415E0,2.782329917E-1,-3.804270029E-1,-8.750200272E-2,4.793692759E-1
3.658242801E0,-1.737820059E-1,-5.077400059E-2,-2.328869998E-1,2.949822697E-1
3.663239362E0,-2.354130000E-1,2.511540055E-1,-4.970000125E-3,3.442707016E-1
3.668235977E0,2.731809914E-1,-5.022799969E-2,7.610499859E-2,2.879977028E-1
3.673232373E0,-5.374699831E-2,-2.235200070E-2,-1.253480017E-1,1.382044619E-1
3.678228986E0,-4.678300023E-2,6.135300174E-2,-7.859000005E-3,7.755387685E-2
3.683225532E0,4.824399948E-2,-8.628999814E-3,-3.190499917E-2,5.847967250E-2
3.688222145E0,1.093999948E-3,-3.013999900E-3,-6.069000065E-2,6.077464283E-2
3.693218522E0,-8.658999577E-3,6.994999945E-3,-1.279500034E-2,1.695937297E-2
3.698215135E0,9.215000086E-3,-1.273499988E-2,-7.743500173E-2,7.901440338E-2
3.703211751E0,5.624400079E-2,-2.567099966E-2,1.357600000E-2,6.329846463E-2
3.708208277E0,-1.616310030E-1,6.255500019E-2,-6.306300312E-2,1.844306145E-1
3.713204662E0,1.713719964E-1,-5.737200007E-2,-7.251399755E-2,1.947259289E-1
3.718201260E0,-3.781300038E-2,5.359000061E-3,2.791300043E-2,4.730409573E-2
3.723197875E0,-1.808470041E-1,6.923399866E-2,-7.021699846E-2,2.059840099E-1
3.728194416E0,1.709160060E-1,-3.710100055E-2,-1.107740030E-1,2.070257111E-1
3.733191121E0,1.229280010E-1,-4.052700102E-2,1.115700044E-2,1.299161649E-1
3.738187431E0,-1.612540036E-1,4.191499949E-2,4.936499894E-2,1.737717583E-1
3.743184044E0,-9.052699804E-2,3.786500171E-2,-7.261899859E-2,1.220754467E-1
3.748180585E0,1.213679984E-1,-1.308800001E-2,-1.443759948E-1,1.890659003E-1
3.753176969E0,8.301500231E-2,-1.839400083E-2,-6.310799718E-2,1.058888530E-1
3.758173558E0,-6.026700139E-2,9.921000339E-3,3.738100082E-2,7.160919582E-2
3.763170173E0,-5.090399832E-2,1.353599969E-2,4.700699821E-2,7.059814596E-2
3.768166709E0,1.239600033E-2,-2.441999968E-3,-4.874699935E-2,5.035766212E-2
3.773163322E0,8.632999845E-3,9.871999733E-3,-1.158000007E-1,1.165402301E-1
3.778159704E0,-5.936000030E-3,9.665000252E-3,-7.989799976E-2,8.069906253E-2
3.783156317E0,2.445999999E-3,-1.238499954E-2,1.509999973E-3,1.271421368E-2
3.788152858E0,7.599999662E-5,-9.050999768E-3,2.309099957E-2,2.480162563E-2
3.793149242E0,-1.441099960E-2,1.058799960E-2,-2.238300070E-2,2.864928211E-2
3.798145856E0,-1.554999966E-3,1.212999970E-2,-7.746200264E-2,7.842140505E-2
3.803142471E0,1.518900041E-2,1.935999957E-3,-6.790699810E-2,6.961188275E-2
3.808139006E0,6.849000230E-3,-9.802999906E-3,-2.003699914E-2,2.333428691E-2
3.813135620E0,-3.042999888E-3,-1.130899973E-2,8.716999553E-3,1.459929466E-2
3.818131998E0,-7.354000118E-3,1.384999952E-3,-2.237300016E-2,2.359132635E-2
3.823128611E0,-6.657000165E-3,8.399999700E-3,-6.067299843E-2,6.161240447E-2
3.828125151E0,-3.764000023E-3,5.557000171E-3,-4.631099850E-2,4.679483443E-2
3.833121755E0,1.247999957E-3,5.415000021E-3,-1.758199930E-2,1.843926323E-2
3.838118141E0,1.077700034E-2,2.050000039E-4,-1.280700043E-2,1.673932559E-2
3.843114765E0,1.000500005E-2,9.000000318E-6,-3.437900171E-2,3.580524913E-2
3.848111305E0,4.546999931E-3,9.575000033E-3,-5.594100058E-2,5.693638011E-2
3.853107923E0,-4.009999975E-4,8.906999603E-3,-5.596699938E-2,5.667274885E-2
3.858104309E0,-5.030000117E-3,6.006000098E-3,-2.724999934E-2,2.835375465E-2
3.863100837E0,-4.631000105E-3,7.750000223E-4,-1.768100075E-2,1.829383980E-2
3.868097452E0,-6.572999991E-3,6.479999865E-4,-3.922300041E-2,3.977521834E-2
3.873094068E0,-1.126999967E-3,2.988999942E-3,-6.075999886E-2,6.084391268E-2
3.878090454E0,1.601999975E-3,5.398000125E-3,-5.117699876E-2,5.148582341E-2
3.883087068E0,1.686000032E-3,7.573000155E-3,-3.202800080E-2,3.295429809E-2
3.888083608E0,-8.709999966E-4,-1.740000007E-4,-2.247400023E-2,2.249154515E-2
3.893080225E0,-3.331999993E-3,2.186000114E-3,-3.205300122E-2,3.229977876E-2
3.898076612E0,-3.173999954E-3,9.162000380E-3,-5.121000111E-2,5.211986896E-2
3.903073240E0,4.395000171E-3,1.334000030E-3,-5.361900106E-2,5.381535894E-2
3.908069781E0,4.035000224E-3,-5.710999947E-3,-3.686099872E-2,3.751839514E-2
3.913066384E0,1.282999991E-3,-5.123999901E-3,-2.248400077E-2,2.309614155E-2
3.918063000E0,-3.551000031E-3,2.553999890E-3,-2.725600079E-2,2.760474770E-2
3.923059386E0,-7.800000021E-4,7.195000071E-3,-4.162000120E-2,4.224453723E-2
3.928055914E0,4.071000032E-3,2.004999900E-3,-4.642000049E-2,4.664128548E-2
3.933052529E0,1.333000022E-3,-3.300000099E-4,-4.163699970E-2,4.165963913E-2
3.938048906E0,1.211000024E-3,-2.582000103E-3,-3.684600070E-2,3.695620399E-2
3.943045519E0,-1.302000019E-3,-2.365000080E-3,-2.726400085E-2,2.739733877E-2
3.948042060E0,-1.218999969E-3,3.000000142E-4,-2.964800037E-2,2.967456633E-2
3.953038673E0,-1.033999957E-3,-2.041999949E-3,-4.161300138E-2,4.167590195E-2
3.958035289E0,-8.449999732E-4,3.032000037E-3,-3.680999950E-2,3.694432449E-2
3.963031689E0,-3.073999891E-3,-1.917000045E-3,-2.963100001E-2,2.985164194E-2
3.968028303E0,-5.125000142E-3,-1.571999979E-3,-2.961299941E-2,3.009429422E-2
3.973024914E0,-6.998999976E-3,3.531000111E-3,-3.198400140E-2,3.293068945E-2
3.978021224E0,-8.709000424E-3,5.706000142E-3,-3.197799996E-2,3.363030787E-2
3.983017837E0,-5.483000074E-3,7.797999773E-3,-3.436499834E-2,3.566265836E-2
3.988014466E0,-4.923000000E-3,4.929999821E-3,-3.915899992E-2,3.977396261E-2
3.993011007E0,-2.007999923E-3,-7.200000255E-5,-4.154799879E-2,4.159655576E-2
3.998007620E0,-4.127999768E-3,2.438999945E-3,-4.632800072E-2,4.657545227E-2
4.003004007E0,-3.661999945E-3,2.353999997E-3,-4.632100090E-2,4.652511885E-2
4.008000543E0,3.945000004E-3,-2.510000020E-3,-3.913399950E-2,3.941234631E-2
4.012997149E0,-1.082999981E-3,7.385999896E-3,-3.194399923E-2,3.280464861E-2
4.017993764E0,-9.040000150E-4,6.835999899E-3,-3.674700111E-2,3.738836987E-2
4.022990380E0,6.446000189E-3,-3.226999892E-3,-3.675999865E-2,3.746013811E-2
4.027986699E0,8.275999688E-3,-2.853000071E-3,-3.675999865E-2,3.778795153E-2
4.032983313E0,7.555000018E-3,-9.693000466E-3,-3.676199913E-2,3.876179644E-2
4.037979699E0,7.000000216E-3,-8.763999678E-3,-3.674200177E-2,3.841591321E-2
4.042976327E0,4.093999974E-3,-3.227999900E-3,-3.912200034E-2,3.946785692E-2
4.047973173E0,1.445999951E-3,-4.520000075E-4,-3.672000021E-2,3.675123991E-2
4.052969469E0,-5.766999908E-3,-2.605000045E-3,-3.671199828E-2,3.725339087E-2
4.057965853E0,-4.990000161E-4,1.110000012E-4,-4.387399927E-2,4.387697726E-2
4.062962462E0,1.161700021E-2,2.616999904E-3,-4.147300124E-2,4.314873364E-2
4.067959001E0,8.326999843E-3,1.110000012E-4,-3.191800043E-2,3.298651238E-2
4.072955692E0,-4.164999817E-3,2.578000072E-3,-2.953100018E-2,2.993448312E-2
4.077952002E0,-6.122000050E-3,7.222000044E-3,-3.671000153E-2,3.791121709E-2
4.082948616E0,-5.503000226E-3,9.095000103E-3,-4.150500149E-2,4.284468680E-2
4.087945255E0,-4.931999836E-3,1.350000035E-3,-3.911700100E-2,3.944980215E-2
4.092941795E0,5.057000089E-3,3.735000035E-3,-3.910800070E-2,3.961008954E-2
4.097938180E0,-1.740000007E-4,3.522000043E-3,-4.870200157E-2,4.882949639E-2
4.102934802E0,-2.441999968E-3,9.599999757E-4,-4.631000012E-2,4.638427616E-2
4.107931343E0,-2.122000093E-3,1.057999954E-2,-4.151599854E-2,4.289542411E-2
4.112927971E0,5.559999845E-4,7.389999926E-3,-3.914200142E-2,3.983738834E-2
4.117924587E0,1.018300001E-2,-2.820000052E-3,-4.395100102E-2,4.520327842E-2
4.122920973E0,6.916999817E-3,-2.459000098E-3,-4.156300053E-2,4.220633342E-2
4.127917510E0,-8.609999786E-4,-2.135999966E-3,-3.677399829E-2,3.684604140E-2
4.132914115E0,4.089000169E-3,-4.352000076E-3,-3.676500171E-2,3.724681433E-2
4.137910731E0,3.831000067E-3,-6.275000051E-3,-3.196699917E-2,3.280154300E-2
4.142907117E0,-1.200000057E-3,-5.652999971E-3,-3.913399950E-2,3.955839134E-2
4.147903756E0,-3.395000007E-3,4.511999898E-3,-3.911000118E-2,3.951552050E-2
4.152900296E0,-5.400000140E-3,1.141299959E-2,-3.911000118E-2,4.109755167E-2
4.157896671E0,-2.339999890E-3,1.053799968E-2,-4.151999950E-2,4.290029599E-2
4.162893284E0,2.855000086E-3,2.562999958E-3,-3.675200045E-2,3.695171892E-2
4.167889899E0,-2.187999897E-3,-2.346999943E-3,-3.675900027E-2,3.689877848E-2
4.172886435E0,-4.404999781E-3,3.450000077E-4,-4.393000156E-2,4.415164872E-2
4.177883048E0,8.670000243E-4,2.724000020E-3,-4.391900077E-2,4.401193582E-2
4.182879426E0,5.582999904E-3,7.397000212E-3,-3.674200177E-2,3.789274593E-2
4.187876039E0,9.878999554E-3,1.175499987E-2,-3.676699847E-2,3.984453326E-2
4.192872580E0,1.141500007E-2,8.554999717E-3,-3.920499980E-2,4.171956683E-2
4.197869193E0,3.246000037E-3,-1.546000014E-3,-3.445599973E-2,3.464307362E-2
4.202865608E0,3.056999994E-3,-1.322999946E-3,-4.163499922E-2,4.176803488E-2
4.207862221E0,5.289999768E-3,6.084000226E-3,-3.923700005E-2,4.005672639E-2
4.212858777E0,-2.247999888E-3,-3.909000196E-3,-3.686499968E-2,3.713976289E-2
4.217855390E0,-6.750999950E-3,-5.975000095E-3,-3.445500135E-2,3.561493710E-2
4.222851777E0,3.492000047E-3,-2.979000099E-3,-2.962899953E-2,2.998243017E-2
4.227848289E0,1.045500021E-2,6.928999908E-3,-3.201799840E-2,3.438706575E-2
4.232844905E0,9.639999829E-3,6.421000231E-3,-3.444600105E-2,3.634124144E-2
4.237841597E0,1.614999957E-3,8.356000297E-3,-3.926699981E-2,4.017870381E-2
4.242837907E0,1.469000010E-3,2.851000056E-3,-4.408400133E-2,4.420051285E-2
4.247834510E0,6.237000227E-3,-9.246000089E-3,-3.451099992E-2,3.626841332E-2
4.252831051E0,-1.392000006E-3,-1.075700019E-2,-2.730700001E-2,2.938235808E-2
4.257827664E0,-1.087899972E-2,-2.479000017E-3,-2.487399988E-2,2.726195052E-2
4.262824051E0,-5.191000178E-3,4.976999946E-3,-3.681699932E-2,3.751277716E-2
4.267820587E0,-2.154000103E-3,9.436000139E-3,-5.117899925E-2,5.208615727E-2
4.272817265E0,3.250000067E-3,6.370999850E-3,-6.076800078E-2,6.118743383E-2
4.277813806E0,3.703900054E-2,-1.305599976E-2,-4.401300102E-2,5.898721006E-2
4.282810180E0,4.801000003E-3,-1.638600044E-2,2.779199928E-2,3.261818259E-2
4.287806717E0,-1.213880032E-1,3.260099888E-2,1.821799949E-2,1.270030234E-1
4.292803332E0,-4.167699814E-2,3.181499988E-2,-1.468770057E-1,1.559551897E-1
4.297799729E0,2.578789890E-1,-6.848400086E-2,-1.276880056E-1,2.957969880E-1
4.302796573E0,-3.467399999E-2,9.980999865E-3,7.798799872E-2,8.593040544E-2
4.307792955E0,-2.592709959E-1,7.811400294E-2,3.778999904E-3,2.708090242E-1
4.312789491E0,2.083420008E-1,-7.246000320E-2,-4.866399989E-2,2.258871981E-1
4.317786203E0,-2.795399912E-2,2.010199986E-2,-5.362400040E-2,6.372636726E-2
4.322782743E0,-1.487000030E-3,-5.210999865E-3,-8.474499732E-2,8.491807970E-2
4.327779128E0,-2.033999935E-2,1.005099993E-2,-5.700999871E-3,2.339315226E-2
4.332775731E0,1.037999988E-2,-2.879000036E-3,-1.047800016E-2,1.502735925E-2
4.337772272E0,7.247999776E-3,1.967000077E-3,-5.358900130E-2,5.411269398E-2
4.342768656E0,1.381899975E-2,1.949000056E-3,-5.599499866E-2,5.770791307E-2
4.347765270E0,-2.065300010E-2,4.432000220E-3,-8.713699877E-2,8.966072493E-2
4.352761820E0,-1.911499910E-2,1.169000007E-2,2.063599974E-2,3.046118477E-2
4.357758433E0,7.838699967E-2,-5.163000152E-2,-3.203599900E-2,9.917905023E-2
4.362754820E0,-1.440510005E-1,6.041700020E-2,-3.442500159E-2,1.599561983E-1
4.367751352E0,2.013940066E-1,-8.343599737E-2,-2.715099975E-2,2.196776920E-1
4.372747967E0,-1.674250066E-1,5.775799975E-2,-1.445679963E-1,2.286198262E-1
4.377744611E0,3.369100019E-2,2.704500034E-2,6.386700273E-2,7.710713051E-2
4.382740998E0,1.820069999E-1,-1.166030020E-1,-3.921600059E-2,2.196831873E-1
4.387737611E0,-2.792559862E-1,1.159600019E-1,-8.947200328E-2,3.153345323E-1
4.392734208E0,1.922910064E-1,-2.056900039E-2,7.588099688E-2,2.077422456E-1
4.397730748E0,9.978400171E-2,-9.316500276E-2,-1.470540017E-1,2.006525458E-1
4.402727123E0,-3.281039894E-1,1.571570039E-1,-9.186799824E-2,3.752203097E-1
4.407723736E0,2.267719954E-1,-3.079999983E-2,1.333120018E-1,2.648514069E-1
4.412720277E0,1.602790058E-1,-1.531849951E-1,-1.183959991E-1,2.513416300E-1
4.417716890E0,-3.852869868E-1,1.665440053E-1,-1.397600025E-1,4.423978144E-1
4.422713505E0,8.803399652E-2,6.644199789E-2,1.166059971E-1,1.605038385E-1
4.427709887E0,3.419019878E-1,-2.313919961E-1,-5.372900143E-2,4.163244297E-1
4.432706501E0,-2.808850110E-1,3.512100130E-2,-2.116370052E-1,3.534403713E-1
4.437703041E0,-1.896959990E-1,2.121450007E-1,7.365199924E-2,2.939637569E-1
4.442699436E0,3.842490017E-1,-1.386619955E-1,9.253899753E-2,4.188530893E-1
4.447696049E0,6.500700116E-2,-1.918279976E-1,-2.165859938E-1,2.965356362E-1
4.452692598E0,-4.050700068E-1,1.988430023E-1,-1.370799989E-1,4.716048941E-1
4.457689212E0,1.727800071E-2,1.556970030E-1,1.599089950E-1,2.238548028E-1
4.462685837E0,3.917590082E-1,-2.480150014E-1,3.253500164E-2,4.648065057E-1
4.467682224E0,-7.194799930E-2,-1.434140056E-1,-2.523320019E-1,2.990242980E-1
4.472678760E0,-3.745729923E-1,2.767150104E-1,-1.009119973E-1,4.765074551E-1
4.477675361E0,8.348800242E-2,1.551840007E-1,1.766559929E-1,2.495188579E-1
4.482671747E0,3.782530129E-1,-2.937850058E-1,2.044199966E-2,4.793775618E-1
4.487668333E0,-3.892999887E-2,-2.018869966E-1,-2.522909939E-1,3.254606733E-1
4.492664873E0,-3.634969890E-1,2.712500095E-1,-1.127059981E-1,4.673427765E-1
4.497661487E0,-4.699000157E-3,2.482610047E-1,1.672189981E-1,2.993623229E-1
4.502657873E0,3.715080023E-1,-2.300760001E-1,6.356900185E-2,4.415814529E-1
4.507654487E0,9.880000353E-2,-2.968150079E-1,-2.213200033E-1,3.832011658E-1
4.512651022E0,-3.428800106E-1,1.700749993E-1,-1.798270047E-1,4.228829137E-1
4.517647636E0,-1.914509982E-1,3.736050129E-1,9.794700146E-2,4.310774936E-1
4.522644022E0,2.816900015E-1,-3.878299892E-2,1.474899948E-1,3.203227692E-1
4.527640630E0,2.797729969E-1,-3.877579868E-1,-1.162749976E-1,4.920864367E-1
4.532637170E0,-1.724029928E-1,-9.070300311E-2,-2.735790014E-1,3.358501105E-1
4.537633797E0,-3.416570127E-1,3.799799979E-1,-5.511200055E-2,5.139568520E-1
4.542630184E0,2.727700025E-2,2.446559966E-1,1.717920005E-1,3.001884122E-1
4.547626797E0,3.410260081E-1,-2.789660096E-1,3.937799856E-2,4.423476003E-1
4.552623353E0,1.283420026E-1,-3.559060097E-1,-2.094240040E-1,4.324340074E-1
4.557619966E0,-2.941609919E-1,1.016829982E-1,-2.037149966E-1,3.719810763E-1
4.562616343E0,-2.567879856E-1,4.140670002E-1,4.546099901E-2,4.893447175E-1
4.567612956E0,1.668120027E-1,9.878599644E-2,1.835719943E-1,2.669898770E-1
4.572609482E0,3.251639903E-1,-3.742749989E-1,-2.291600034E-2,4.963250331E-1
4.577606095E0,1.312800031E-2,-2.776699960E-1,-2.522290051E-1,3.753564201E-1
4.582602487E0,-3.300440013E-1,2.308280021E-1,-1.412039995E-1,4.267893847E-1
4.587599100E0,-1.821829975E-1,4.074839950E-1,1.124209985E-1,4.602959175E-1
4.592595641E0,2.350530028E-1,-1.016199961E-2,1.546750069E-1,2.815626718E-1
4.597592254E0,3.112699986E-1,-4.094479978E-1,-7.318399847E-2,5.195118599E-1
4.602588641E0,-3.324000165E-2,-2.162549943E-1,-2.664290071E-1,3.447543126E-1
4.607585274E0,-3.293310106E-1,2.892459929E-1,-1.267900020E-1,4.562870407E-1
4.612581890E0,-1.455799937E-1,3.986890018E-1,1.218700036E-1,4.415866308E-1
4.617578430E0,2.542740107E-1,-5.172299966E-2,1.305750012E-1,2.904829980E-1
4.622575052E0,3.049269915E-1,-4.210959971E-1,-9.240999818E-2,5.280548425E-1
4.627571439E0,-4.862599820E-2,-2.051270008E-1,-2.616479993E-1,3.360078120E-1
4.632567981E0,-3.338089883E-1,3.041700125E-1,-1.100480035E-1,4.648208260E-1
4.637564596E0,-1.474590003E-1,3.954499960E-1,1.313769966E-1,4.420234964E-1
4.642561197E0,2.500289977E-1,-5.947000161E-2,1.281220019E-1,2.871696853E-1
4.647557584E0,2.914659977E-1,-4.209989905E-1,-8.525300026E-2,5.190959949E-1
4.652554115E0,-6.571199745E-2,-1.932190061E-1,-2.544730008E-1,3.262026349E-1
4.657550731E0,-3.422259986E-1,3.173879981E-1,-1.148580015E-1,4.806725871E-1
4.662547145E0,-1.454450041E-1,3.932659924E-1,1.217669994E-1,4.366229405E-1
4.667543759E0,2.542879879E-1,-6.854999810E-2,1.233149990E-1,2.908059010E-1
4.672540299E0,2.905769944E-1,-4.269039929E-1,-8.047100157E-2,5.226448038E-1
4.677536918E0,-5.933799967E-2,-2.106219977E-1,-2.568599880E-1,3.374309967E-1
4.682533304E0,-3.364019990E-1,3.040170074E-1,-1.291680038E-1,4.714626379E-1
4.687529947E0,-1.569170058E-1,4.026040137E-1,1.146690026E-1,4.470591892E-1
4.692526487E0,2.437050045E-1,-5.053700134E-2,1.233870015E-1,2.777957340E-1
4.697523178E0,2.999320030E-1,-4.247770011E-1,-8.761800081E-2,5.273249674E-1
4.702519477E0,-4.132400081E-2,-2.253900021E-1,-2.592470050E-1,3.460019302E-1
4.707516014E0,-3.223569989E-1,2.929489911E-1,-1.291379929E-1,4.543234171E-1
4.712512634E0,-1.560570002E-1,4.091500044E-1,1.170940027E-1,4.532863541E-1
4.717509249E0,2.373059988E-1,-3.017799929E-2,1.401479989E-1,2.772477418E-1
4.722505865E0,3.108350039E-1,-4.109739959E-1,-6.611099839E-2,5.195081222E-1
4.727502267E0,-2.405099943E-2,-2.272720039E-1,-2.521660030E-1,3.403214765E-1
4.732498803E0,-3.281640112E-1,2.767240107E-1,-1.364540011E-1,4.504303395E-1
4.737495403E0,-1.827789992E-1,4.183810055E-1,1.098409966E-1,4.695911763E-1
4.742491790E0,2.177619934E-1,-2.467999933E-3,1.401070058E-1,2.589524085E-1
4.747488403E0,3.144850135E-1,-4.118320048E-1,-6.379500031E-2,5.220883315E-1
4.752484954E0,-1.563000027E-3,-2.639830112E-1,-2.522630095E-1,3.651384658E-1
4.757481567E0,-3.219070137E-1,2.384299934E-1,-1.556230038E-1,4.297574973E-1
4.762478178E0,-2.034199983E-1,4.265230000E-1,8.598600328E-2,4.803073578E-1
4.767474564E0,1.868720055E-1,4.077700153E-2,1.569509953E-1,2.474217557E-1
4.772471087E0,3.101300001E-1,-3.963170052E-1,-3.504300117E-2,5.044559421E-1
4.777467702E0,3.757400066E-2,-2.978610098E-1,-2.427249998E-1,3.860678855E-1
4.782464103E0,-3.005700111E-1,1.978749931E-1,-1.651979983E-1,3.959636639E-1
4.787460716E0,-2.340669930E-1,4.348880053E-1,6.213200092E-2,4.977703485E-1
4.792457257E0,1.540189981E-1,8.432999998E-2,1.450880021E-1,2.277804404E-1
4.797453851E0,3.301199973E-1,-3.778559864E-1,-2.542199939E-2,5.023949015E-1
4.802450238E0,7.751099765E-2,-3.264200091E-1,-2.284049988E-1,4.058655203E-1
4.807446846E0,-2.879779935E-1,1.525679976E-1,-1.795890033E-1,3.721028470E-1
4.812443387E0,-2.512399852E-1,4.462159872E-1,3.828300163E-2,5.135132186E-1
4.817440005E0,1.240350008E-1,1.449580044E-1,1.691039950E-1,2.549385525E-1
4.822436392E0,3.196130097E-1,-3.510049880E-1,8.070000447E-3,4.747863756E-1
4.827432928E0,1.159150004E-1,-3.594059944E-1,-2.165360004E-1,4.353122966E-1
4.832429543E0,-2.575139999E-1,8.896200359E-2,-2.011999935E-1,3.386873715E-1
4.837426159E0,-2.902759910E-1,4.383699894E-1,1.682100073E-2,5.260335965E-1
4.842422526E0,6.436900049E-2,2.095910013E-1,1.764460057E-1,2.814337381E-1
4.847419371E0,3.197079897E-1,-3.037930131E-1,3.688700125E-2,4.425652995E-1
4.852415651E0,1.614010036E-1,-3.857930005E-1,-1.902730018E-1,4.594456860E-1
4.857412265E0,-2.519110143E-1,7.176999748E-2,-2.108670026E-1,3.362662404E-1
4.862408651E0,-2.756569982E-1,3.676339984E-1,2.156800032E-2,4.600073000E-1
4.867405270E0,2.551040053E-1,3.624999896E-3,1.406749934E-1,2.913428357E-1
4.872401810E0,1.333349943E-1,-1.597809941E-1,-1.255549937E-1,2.430478209E-1
4.877398424E0,-2.184669971E-1,9.371999651E-2,-8.221299946E-2,2.515357706E-1
4.882394781E0,1.403959990E-1,-2.654399909E-2,2.563999966E-2,1.451655262E-1
4.887391395E0,-5.355500057E-2,-5.200000014E-4,-7.509099692E-2,9.223375903E-2
4.892387950E0,-5.793999881E-3,1.159999985E-2,-3.668399900E-2,3.890817670E-2
4.897384564E0,3.778700158E-2,-2.281400003E-2,-2.473600022E-2,5.059847619E-2
4.902380950E0,-8.508700132E-2,3.187400103E-2,-5.585400015E-2,1.066556096E-1
4.907377548E0,1.427209973E-1,-4.721999913E-2,-1.268799976E-2,1.508641665E-1
4.912374088E0,-1.499940008E-1,4.773399979E-2,-1.280700043E-2,1.579264204E-1
4.917370473E0,3.103199974E-2,-1.380200032E-2,-1.036539972E-1,1.090762639E-1
4.922367053E0,1.313930005E-1,-4.082300141E-2,1.366600022E-2,1.382656775E-1
4.927363668E0,-2.059630007E-1,7.254599780E-2,-1.039899979E-2,2.186133999E-1
4.932360209E0,2.783999965E-2,6.376000121E-3,-1.299539953E-1,1.330554766E-1
4.937356822E0,2.057749927E-1,-5.583500117E-2,-4.379700124E-2,2.176673432E-1
4.942353204E0,-9.496200085E-2,2.092799917E-2,5.177199841E-2,1.101639804E-1
4.947349817E0,-1.641750038E-1,4.739600047E-2,-1.759099960E-2,1.717825835E-1
4.952346348E0,7.772900164E-2,-9.522999637E-3,-1.275690049E-1,1.496874618E-1
4.957342732E0,1.414230019E-1,-2.956300043E-2,-8.933199942E-2,1.698665434E-1
4.962339346E0,-1.155500021E-2,7.089000195E-3,2.066900022E-2,2.471800000E-2
4.967335971E0,-7.803300023E-2,1.828199998E-2,6.614399701E-2,1.039153934E-1
4.972332512E0,-1.485900022E-2,1.843999955E-3,-1.760900021E-2,2.311421882E-2
4.977329096E0,2.665200084E-2,4.017000087E-3,-1.157630011E-1,1.188593197E-1
4.982325483E0,1.281700004E-2,4.211000167E-3,-1.134010032E-1,1.142006810E-1
4.987322019E0,2.884000074E-3,-2.698000055E-3,-3.199600056E-2,3.223880755E-2
4.992318635E0,6.380000268E-4,-7.170999888E-3,2.308399975E-2,2.418059817E-2
4.997315250E0,-1.389999967E-2,3.389999911E-4,-1.042599976E-2,1.737890626E-2
5.002311637E0,-1.308200043E-2,9.801999666E-3,-7.505600154E-2,7.681550169E-2
5.007308260E0,6.941000000E-3,9.378000163E-3,-8.462999761E-2,8.543044459E-2
5.012304875E0,1.522999955E-3,-5.241999868E-3,-3.916199878E-2,3.954061507E-2
5.017301416E0,-6.960000028E-4,-1.665800065E-2,1.561000012E-3,1.674545080E-2
5.022297781E0,4.383999854E-3,-1.093000057E-3,-1.994000003E-2,2.044548128E-2
5.027294394E0,1.778000034E-3,1.091799978E-2,-6.543000042E-2,6.635848822E-2
5.032290925E0,-3.123000031E-3,5.479000043E-3,-6.545499712E-2,6.575811143E-2
5.037287310E0,-2.920000115E-3,6.109999958E-4,-3.193499893E-2,3.207403745E-2
5.042283937E0,6.779000163E-3,6.440000143E-4,-1.517200004E-2,1.663006809E-2
5.047280784E0,3.750999924E-3,-4.265000112E-3,-3.673699871E-2,3.717347576E-2
5.052277093E0,-5.950999912E-3,8.065000176E-3,-6.306400150E-2,6.385551592E-2
5.057273707E0,-7.590000052E-3,1.004599966E-2,-5.827299878E-2,5.961772049E-2
5.062270093E0,-2.016999992E-3,7.158000022E-3,-3.433400020E-2,3.513016970E-2
5.067266707E0,2.824000083E-3,1.950999955E-3,-1.279900037E-2,1.325125608E-2
5.072263322E0,2.999999924E-5,-5.810000002E-4,-1.999299973E-2,2.000146243E-2
5.077259632E0,2.376999939E-3,8.991000243E-3,-5.590799823E-2,5.667620736E-2
5.082256269E0,-9.400000272E-5,1.076699980E-2,-6.311400235E-2,6.402588861E-2
5.087252885E0,-4.629999865E-3,-1.848999993E-3,-4.636900127E-2,4.663625176E-2
5.092249435E0,-1.729000011E-3,-1.114199962E-2,-3.198499978E-2,3.391421247E-2
5.097246048E0,3.187000053E-3,-5.419000052E-3,-2.476800047E-2,2.555340248E-2
5.102242450E0,2.881000051E-3,-2.497999929E-3,-4.630399868E-2,4.646074105E-2
5.107238987E0,3.480000014E-4,-2.156999893E-3,-6.544899940E-2,6.548545851E-2
5.112235602E0,4.579999950E-4,-1.682000002E-3,-5.345999822E-2,5.348841274E-2
5.117232222E0,5.222000182E-3,-1.386999968E-3,-3.669000044E-2,3.708570058E-2
5.122228838E0,-2.599999971E-5,3.512999974E-3,-3.669499978E-2,3.686278413E-2
5.127225147E0,6.800000119E-5,5.704999901E-3,-4.148799926E-2,4.187846380E-2
5.132221761E0,-2.228999976E-3,5.431999918E-3,-4.868000001E-2,4.903282028E-2
5.137218147E0,-4.313999787E-3,5.200999789E-3,-4.868200049E-2,4.914873513E-2
5.142214751E0,9.580000187E-4,4.991999827E-3,-4.149600118E-2,4.180617108E-2
5.147211366E0,-1.415999955E-3,-2.505999990E-3,-3.911099955E-2,3.921677419E-2
5.152207921E0,5.983999930E-3,-2.186000114E-3,-4.627799988E-2,4.671445306E-2
5.157204305E0,3.182000015E-3,5.415999796E-3,-5.584900081E-2,5.620114829E-2
5.162200919E0,6.380000268E-4,5.212000106E-3,-4.867599905E-2,4.895839940E-2
5.167197459E0,3.087999998E-3,-2.177000046E-3,-3.671099991E-2,3.690491278E-2
5.172194073E0,-1.975999912E-3,2.895999933E-3,-2.473700047E-2,2.498420668E-2
5.177190469E0,5.540000275E-4,7.395000197E-3,-3.671500087E-2,3.745643113E-2
5.182187083E0,-1.898000017E-3,4.360000137E-3,-4.870999977E-2,4.894155783E-2
5.187183703E0,-6.513000000E-3,6.513000000E-3,-4.871200025E-2,4.957516824E-2
5.192180244E0,1.237999997E-3,3.691999940E-3,-4.392899945E-2,4.410125282E-2
5.197176857E0,3.627999919E-3,-3.684999887E-3,-4.154000059E-2,4.186064090E-2
5.202173224E0,-1.476999954E-3,-3.358999966E-3,-4.153500125E-2,4.169677132E-2
5.207169760E0,-3.647000063E-3,1.725999988E-3,-4.391599819E-2,4.410095897E-2
5.212166371E0,-3.227999900E-3,-5.485000089E-3,-4.390799999E-2,4.436685331E-2
5.217162987E0,-2.949000103E-3,-4.790999927E-3,-3.909099847E-2,3.949375195E-2
5.222159387E0,-2.603000030E-3,-4.273000173E-3,-3.188199922E-2,3.227221737E-2
5.227155924E0,4.887000192E-3,8.599999710E-4,-2.947100066E-2,2.988582022E-2
5.232152549E0,1.173099969E-2,1.283499971E-2,-4.144899920E-2,4.494856066E-2
5.237149165E0,1.321700029E-2,1.184900012E-2,-4.389499873E-2,4.734827150E-2
5.242145565E0,5.005000159E-3,1.345000044E-2,-4.394299909E-2,4.622704520E-2
5.247142102E0,2.286999952E-3,5.336999893E-3,-4.398100078E-2,4.436262353E-2
5.252138717E0,4.590999801E-3,2.090000053E-4,-4.638800025E-2,4.661509978E-2
5.257135099E0,6.699999794E-3,7.499999832E-3,-5.596800148E-2,5.686437536E-2
5.262131712E0,1.461999957E-3,-1.720000000E-4,-5.360100046E-2,5.362121108E-2
5.267128304E0,-9.350000182E-4,-4.798999988E-3,-3.922900185E-2,3.953250829E-2
5.272124844E0,1.531000016E-3,-1.888999948E-3,-3.202699870E-2,3.211916760E-2
5.277121220E0,3.773000091E-3,-6.430999842E-3,-4.159900174E-2,4.226192416E-2
5.282117833E0,3.550000023E-3,-5.766999908E-3,-4.876400158E-2,4.923198796E-2
5.287114383E0,3.357999958E-3,-2.460000105E-4,-5.113599822E-2,5.124672666E-2
5.292110996E0,-1.600999967E-3,4.703000188E-3,-4.395199940E-2,4.423188513E-2
5.297107383E0,-1.362000010E-3,9.208999574E-3,-3.677399829E-2,3.793399092E-2
5.302104011E0,8.422999643E-3,3.728999989E-3,-3.679199889E-2,3.792760929E-2
5.307100552E0,-1.677999971E-3,-1.383999945E-3,-4.399900138E-2,4.405273275E-2
5.312097155E0,-6.217999849E-3,3.641000018E-3,-4.877100140E-2,4.930041562E-2
5.317093542E0,-3.280000063E-3,5.855000112E-3,-4.158399999E-2,4.212206645E-2
5.322090092E0,-5.396000110E-3,5.464999937E-3,-3.919899836E-2,3.994426760E-2
5.327086707E0,-4.838999826E-3,7.497000042E-3,-4.159300029E-2,4.253937708E-2
5.332083309E0,-4.325999878E-3,4.573000129E-3,-4.878500104E-2,4.918945956E-2
5.337079695E0,-3.838999895E-3,1.918000053E-3,-5.117699876E-2,5.135661444E-2
5.342076318E0,-3.390999977E-3,1.891999971E-3,-4.637999833E-2,4.654226885E-2
5.347072858E0,1.797999954E-3,1.855000039E-3,-3.919199854E-2,3.927704901E-2
5.352069472E0,6.525999866E-3,1.802999992E-3,-3.919500113E-2,3.977546475E-2
5.357065863E0,6.060000043E-3,-3.033000045E-3,-4.878199846E-2,4.925044226E-2
5.362062477E0,-4.029999953E-3,-5.135999992E-3,-5.357100070E-2,5.396731892E-2
5.367059012E0,-6.062999833E-3,-4.546000157E-3,-5.114899948E-2,5.170731314E-2
5.372055626E0,6.543000229E-3,-8.802999742E-3,-5.111699924E-2,5.228050562E-2
5.377052007E0,1.309999963E-3,-3.223000094E-3,-4.391799867E-2,4.405558349E-2
5.382048544E0,-1.090000034E-3,1.960000023E-3,-4.150899872E-2,4.156954023E-2
5.387045159E0,-3.288999898E-3,-3.849999921E-4,-4.868699983E-2,4.879948460E-2
5.392041551E0,-2.995999996E-3,-4.902999848E-3,-4.867099971E-2,4.900899546E-2
5.397038087E0,-3.380000126E-4,4.410000111E-4,-4.864799976E-2,4.865117271E-2
5.402034703E0,-3.030000080E-4,5.222999956E-3,-5.104099959E-2,5.130843183E-2
5.407031318E0,-5.053999834E-3,4.916999955E-3,-4.626199976E-2,4.679628644E-2
5.412027705E0,-2.118000062E-3,2.227999968E-3,-4.147300124E-2,4.158677362E-2
5.417024294E0,1.013599988E-2,-2.439999953E-4,-3.668199852E-2,3.805741774E-2
5.422020834E0,9.464000352E-3,-1.250000059E-4,-3.669200093E-2,3.789308459E-2
5.427017448E0,6.455000024E-3,-2.409999957E-3,-4.388299957E-2,4.442063458E-2
5.432013830E0,1.089899987E-2,2.704000100E-3,-4.387800023E-2,4.529214853E-2
5.437010443E0,1.006899960E-2,9.774999693E-3,-3.671599925E-2,3.930648767E-2
5.442006993E0,-5.171000026E-3,4.246999975E-3,-4.154700041E-2,4.208241311E-2
5.447003607E0,-9.414000437E-3,1.599999960E-3,-5.112300068E-2,5.200715915E-2
5.451999993E0,1.193000004E-3,1.601999975E-3,-5.589000136E-2,5.592568198E-2
5.456996616E0,1.217999961E-3,6.407000124E-3,-5.589000136E-2,5.626922273E-2
5.461993156E0,-1.155999955E-3,3.619000083E-3,-5.111400038E-2,5.125499519E-2
5.466989766E0,3.741000080E-3,-3.732000012E-3,-5.111600086E-2,5.138840774E-2
5.471986152E0,-1.356999972E-3,-3.268999979E-3,-4.871299863E-2,4.884141731E-2
5.476982766E0,-6.018999964E-3,-5.649999948E-4,-4.630500078E-2,4.669797301E-2
5.481979266E0,1.685000025E-3,-4.949999857E-4,-4.629300162E-2,4.632630192E-2
5.486975880E0,3.940000199E-3,-2.720999997E-3,-4.389600083E-2,4.415638495E-2
5.491972261E0,1.209000009E-3,-2.264000010E-3,-4.388799891E-2,4.396298244E-2
5.496968875E0,-1.287000021E-3,-4.240000155E-3,-4.626899958E-2,4.648068730E-2
5.501965415E0,-1.065999968E-3,-1.250999980E-3,-4.864000157E-2,4.866776252E-2
5.506961805E0,1.529000001E-3,-1.007999992E-3,-5.102000013E-2,5.105285808E-2
5.511958418E0,-8.167999797E-3,-3.171999939E-3,-4.383299872E-2,4.470021903E-2
5.516954959E0,-7.565999869E-3,2.003999893E-3,-4.859500006E-2,4.922127995E-2
5.521951567E0,2.774999943E-3,1.965000061E-3,-6.294500083E-2,6.303677481E-2
5.526947954E0,-9.189000353E-3,1.154999994E-2,-6.773400307E-2,6.932341161E-2
5.531944591E0,6.328000221E-3,1.074399985E-2,-7.731500268E-2,7.831402658E-2
5.536941131E0,4.446600005E-2,-9.114000015E-3,-5.818900093E-2,7.379871263E-2
5.541937736E0,1.400600001E-2,-1.294600032E-2,8.797000162E-3,2.100367045E-2
5.546934122E0,-9.836100042E-2,2.622600086E-2,6.384999957E-3,1.019973419E-1
5.551930721E0,-5.899799988E-2,3.799000010E-2,-1.443669945E-1,1.605173922E-1
5.556927261E0,2.205139995E-1,-5.088099837E-2,-1.586840004E-1,2.763981041E-1
5.561923889E0,4.872199893E-2,-2.171600051E-2,6.137600169E-2,8.131685828E-2
5.566920275E0,-3.077499866E-1,8.507499844E-2,3.260700032E-2,3.209533083E-1
5.571916889E0,1.519149989E-1,-5.908700079E-2,-8.682099730E-2,1.846816886E-1
5.576913439E0,6.413699687E-2,-1.073899958E-2,-6.059300154E-2,8.888415109E-2
5.581910053E0,-6.345400214E-2,2.408399992E-2,-1.037570015E-1,1.239837279E-1
5.586906439E0,3.321399912E-2,-1.090299990E-2,-1.031900011E-2,3.644896306E-2
5.591903067E0,-2.443699911E-2,-3.729999880E-4,-1.991499960E-2,3.152638996E-2
5.596899607E0,1.145000011E-2,4.282999784E-3,-5.818000063E-2,5.945047572E-2
5.601896207E0,3.224499896E-2,-5.599999800E-3,-7.496500015E-2,8.179762346E-2
5.606892593E0,-7.332199812E-2,2.871800028E-2,-9.414300323E-2,1.227344451E-1
5.611889207E0,6.934999675E-2,-2.116299979E-2,8.865999989E-3,7.304724885E-2
5.616885757E0,-2.513699979E-2,4.546000157E-3,-7.499200106E-2,7.922332421E-2
5.621882370E0,-1.690999954E-3,2.820999920E-2,1.653000014E-3,2.830893755E-2
5.626878757E0,1.259000003E-1,-6.290700287E-2,-9.418799728E-2,1.693501695E-1
5.631875360E0,-2.176730037E-1,1.008099988E-1,-9.660200030E-2,2.586042127E-1
5.636871976E0,2.274720073E-1,-7.021000236E-2,4.476099834E-2,2.422323378E-1
5.641868272E0,-6.934399903E-2,-1.419799961E-2,-1.397870034E-1,1.566862461E-1
5.646864885E0,-1.594749987E-1,1.070490032E-1,-7.570000016E-4,1.920737810E-1
5.651861428E0,3.069030046E-1,-1.270599961E-1,-1.274999976E-2,3.324097763E-1
5.656858043E0,-1.954360008E-1,3.936100006E-2,-2.164079994E-1,2.942395979E-1
5.661854429E0,-1.379089952E-1,1.300469935E-1,3.043100052E-2,1.919821795E-1
5.666851034E0,3.481869996E-1,-1.586519927E-1,4.467700049E-2,3.852280828E-1
5.671847574E0,-1.742649972E-1,-9.030000307E-3,-2.092510015E-1,2.724624961E-1
5.676844188E0,-2.457139939E-1,1.909919977E-1,-6.220000214E-4,3.112132659E-1
5.681840588E0,3.546049893E-1,-1.195100024E-1,8.068300039E-2,3.828016270E-1
5.686837202E0,5.461600050E-2,-1.573899984E-1,-2.092950046E-1,2.675049870E-1
5.691833742E0,-3.931170106E-1,1.968320012E-1,-1.203029975E-1,4.558032821E-1
5.696830127E0,1.098320037E-1,7.971999794E-2,1.455709934E-1,1.990207558E-1
5.701826735E0,3.691050112E-1,-2.481320053E-1,-5.357800052E-2,4.479716548E-1
5.706823351E0,-2.151039988E-1,-2.098800056E-2,-2.761259973E-1,3.506505281E-1
5.711819891E0,-3.185569942E-1,2.856540084E-1,-2.189199999E-2,4.284343949E-1
5.716816504E0,2.638199925E-1,7.675999776E-3,1.741770059E-1,3.162238745E-1
5.721812891E0,3.043250144E-1,-3.069860041E-1,-8.969300240E-2,4.414736184E-1
5.726809496E0,-2.552999854E-1,-1.245499961E-2,-2.712410092E-1,3.726994696E-1
5.731806036E0,-2.953889966E-1,3.364189863E-1,-1.217800006E-2,4.478623643E-1
5.736802649E0,2.251130044E-1,5.409099907E-2,1.741199940E-1,2.896885798E-1
5.741799036E0,3.262209892E-1,-3.457669914E-1,-5.629000068E-2,4.786893672E-1
5.746795572E0,-1.368770003E-1,-1.317930073E-1,-2.712930143E-1,3.312168619E-1
5.751792207E0,-3.546400070E-1,3.305059969E-1,-7.908699661E-2,4.911807220E-1
5.756788594E0,2.499499917E-2,2.497150004E-1,1.719390005E-1,3.042126744E-1
5.761785207E0,3.603770137E-1,-2.431070060E-1,3.951000050E-2,4.365016019E-1
5.766781817E0,1.292839944E-1,-3.445340097E-1,-2.285809964E-1,4.332058483E-1
5.771778358E0,-3.052600026E-1,9.782099724E-2,-2.109359950E-1,3.837272608E-1
5.776774747E0,-2.573109865E-1,4.130550027E-1,4.067499936E-2,4.883419239E-1
5.781771361E0,1.760360003E-1,1.002509966E-1,1.644349992E-1,2.609172372E-1
5.786767901E0,3.361169994E-1,-3.705010116E-1,-3.968000039E-2,5.018168384E-1
5.791764505E0,3.270199895E-2,-2.979519963E-1,-2.618370056E-1,3.979992844E-1
5.796760891E0,-3.192470074E-1,1.932229996E-1,-1.627459973E-1,4.071118261E-1
5.801757457E0,-2.080350071E-1,4.234530032E-1,7.900500298E-2,4.783647150E-1
5.806754072E0,1.946450025E-1,6.908199936E-2,1.499769986E-1,2.552490935E-1
5.811750459E0,3.244329989E-1,-3.846470118E-1,-5.168800056E-2,5.058475500E-1
5.816747072E0,4.355699942E-2,-3.109210134E-1,-2.618109882E-1,4.087958932E-1
5.821743627E0,-3.021579981E-1,1.741050035E-1,-1.914229989E-1,3.978124842E-1
5.826740240E0,-2.425819933E-1,4.443559945E-1,4.317000136E-2,5.080963711E-1
5.831736627E0,1.342290044E-1,1.312849969E-1,1.596180052E-1,2.464367740E-1
5.836733269E0,3.287439942E-1,-3.515430093E-1,-1.577099971E-2,4.815639371E-1
5.841729810E0,1.241390035E-1,-3.644430041E-1,-2.331999987E-1,4.501237995E-1
5.846726423E0,-2.477039993E-1,8.208099753E-2,-2.106709927E-1,3.353756530E-1
5.851722791E0,-2.956480086E-1,4.440920055E-1,1.749999938E-4,5.335030318E-1
5.856719404E0,3.069300018E-2,2.482299954E-1,1.669580042E-1,3.007244021E-1
5.861715958E0,3.104270101E-1,-2.565320134E-1,4.171400145E-2,4.048625204E-1
5.866712572E0,2.152580023E-1,-4.262590110E-1,-1.807810068E-1,5.106021195E-1
5.871708958E0,-1.474539936E-1,-8.246300370E-2,-2.564119995E-1,3.070666714E-1
5.876705520E0,-3.284089863E-1,3.826659918E-1,-8.109799773E-2,5.107471085E-1
5.881702135E0,-1.115240008E-1,3.907609880E-1,1.409479976E-1,4.301140436E-1
5.886698746E0,2.374020070E-1,-6.615400314E-2,1.137159988E-1,2.714173787E-1
5.891695132E0,2.965500057E-1,-4.246770144E-1,-8.766199648E-2,5.253352244E-1
5.896691674E0,1.065099984E-2,-2.826530039E-1,-2.473230064E-1,3.757323967E-1
5.901688289E0,-2.940050066E-1,1.902460009E-1,-1.745779961E-1,3.912926801E-1
5.906684671E0,-2.423850000E-1,4.590640068E-1,4.797599837E-2,5.213366925E-1
5.911681284E0,9.379599988E-2,1.830489933E-1,1.691720039E-1,2.663152088E-1
5.916677825E0,3.204280138E-1,-3.162220120E-1,2.962999977E-2,4.511633959E-1
5.921674195E0,1.907799989E-1,-4.282470047E-1,-1.903200001E-1,5.059784654E-1
5.926670809E0,-1.676210016E-1,-5.787499994E-2,-2.515270114E-1,3.077533968E-1
5.931667354E0,-3.180899918E-1,3.907200098E-1,-7.865600288E-2,5.099315010E-1
5.936663968E0,-1.019980013E-1,3.860470057E-1,1.265819967E-1,4.188781263E-1
5.941660334E0,2.318000048E-1,-6.808300316E-2,1.137119979E-1,2.670148985E-1
5.946656948E0,3.033910096E-1,-4.288359880E-1,-7.807199657E-2,5.310759324E-1
5.951653488E0,3.137800097E-2,-2.889100015E-1,-2.520950139E-1,3.847147826E-1
5.956650107E0,-2.869510055E-1,1.845670044E-1,-1.913270056E-1,3.911673322E-1
5.961646493E0,-2.646079957E-1,4.585950077E-1,2.882900089E-2,5.302432307E-1
5.966643107E0,6.625100225E-2,2.161290050E-1,1.644199938E-1,2.795261641E-1
5.971639647E0,3.070760071E-1,-2.714540064E-1,4.160400108E-2,4.119634021E-1
5.976636260E0,2.120849937E-1,-4.279400110E-1,-1.712750047E-1,5.073931659E-1
5.981632657E0,-1.192260012E-1,-1.127950028E-1,-2.612679899E-1,3.085425652E-1
5.986629194E0,-3.169089854E-1,3.454349935E-1,-1.170269996E-1,4.831686645E-1
5.991625780E0,-1.534190029E-1,4.212839901E-1,1.098890007E-1,4.616201721E-1
5.996622395E0,1.894609928E-1,9.658000432E-3,1.281290054E-1,2.289231024E-1
6.001618782E0,3.195819855E-1,-4.031910002E-1,-4.942699894E-2,5.168545795E-1
6.006615323E0,1.109469980E-1,-3.590170145E-1,-2.259819955E-1,4.384863913E-1
6.011611710E0,-2.333109975E-1,7.731299847E-2,-2.082280070E-1,3.221338606E-1
6.016608337E0,-3.063569963E-1,4.421319962E-1,-1.894400083E-2,5.382324650E-1
6.021604953E0,-3.168499842E-2,3.157519996E-1,1.454509944E-1,3.490834516E-1
6.026601493E0,2.676039934E-1,-1.635629982E-1,7.999499887E-2,3.236725993E-1
6.031598078E0,2.764210105E-1,-4.395020008E-1,-1.187660024E-1,5.326123798E-1
6.036594464E0,-2.452399954E-2,-2.290640026E-1,-2.543770075E-1,3.431900433E-1
6.041591112E0,-3.045429885E-1,2.487760037E-1,-1.625840068E-1,4.255226095E-1
6.046587652E0,-2.353029996E-1,4.598219991E-1,5.740400031E-2,5.197104884E-1
6.051584275E0,1.026310027E-1,1.430550069E-1,1.450800002E-1,2.281360650E-1
6.056580661E0,3.165780008E-1,-3.287679851E-1,1.042599976E-2,4.565289915E-1
6.061577198E0,1.872469932E-1,-4.132899940E-1,-1.927160025E-1,4.929599509E-1
6.066573818E0,-1.587750018E-1,-4.430200160E-2,-2.443879992E-1,2.947840950E-1
6.071570205E0,-3.171260059E-1,3.910030127E-1,-7.397899777E-2,5.088468843E-1
6.076566813E0,-1.083220020E-1,3.863059878E-1,1.336559951E-1,4.228828412E-1
6.081563354E0,2.308849990E-1,-6.544599682E-2,1.136220023E-1,2.655202830E-1
6.086559738E0,2.977649868E-1,-4.264189899E-1,-8.295299858E-2,5.266672026E-1
6.091556342E0,2.862799913E-2,-2.962479889E-1,-2.497989982E-1,3.885639880E-1
6.096552882E0,-2.822859883E-1,1.707739979E-1,-1.818200052E-1,3.767063204E-1
6.101549491E0,-2.626799941E-1,4.508759975E-1,3.837599978E-2,5.232233384E-1
6.106545878E0,8.244600147E-2,1.730560064E-1,1.620139927E-1,2.509865700E-1
6.111542492E0,3.363879919E-1,-3.133989871E-1,1.772899926E-2,4.600979500E-1
6.116539032E0,6.423100084E-2,-2.581200004E-1,-2.309769988E-1,3.522810384E-1
6.121535645E0,-3.339340091E-1,1.743170023E-1,-1.321080029E-1,3.991877555E-1
6.126532032E0,1.113929972E-1,5.677999929E-2,9.779299796E-2,1.587319709E-1
6.131528640E0,1.191049963E-1,-8.718500286E-2,-8.453200012E-2,1.700966899E-1
6.136525181E0,-1.498810053E-1,6.412299722E-2,-6.293100119E-2,1.747466321E-1
6.141521808E0,7.144600153E-2,-8.253999986E-3,-2.454500087E-2,7.599418871E-2
6.146518195E0,-1.747000031E-3,-2.586999908E-3,-7.012999803E-2,7.019943875E-2
6.151514731E0,-4.714500159E-2,3.135300055E-2,-5.574699864E-2,7.945684159E-2
6.156511342E0,9.361299872E-2,-3.104300052E-2,-6.293100119E-2,1.169930439E-1
6.161507728E0,-8.950500190E-2,4.124300182E-2,-1.751100086E-2,1.000937846E-1
6.166504338E0,1.431899983E-2,4.220999777E-3,-1.012649983E-1,1.023594181E-1
6.171500878E0,1.208039969E-1,-4.590899870E-2,-3.127000062E-3,1.292711103E-1
6.176497492E0,-2.036609948E-1,6.086799875E-2,-3.912299871E-2,2.161326516E-1
6.181493877E0,8.271100372E-2,-8.914000355E-3,-1.346960068E-1,1.583148249E-1
6.186490491E0,1.692810059E-1,-4.344199970E-2,-1.268700045E-2,1.752262145E-1
6.191487036E0,-1.668419987E-1,5.359299853E-2,3.023000062E-2,1.778266430E-1
6.196483421E0,-1.049420014E-1,4.380499944E-2,-9.655699879E-2,1.491809494E-1
6.201480025E0,1.636400074E-1,-3.164599836E-2,-1.467480063E-1,2.220686799E-1
6.206476566E0,8.788599819E-2,-2.335700020E-2,-2.480600029E-2,9.425940689E-2
6.211473179E0,-1.140469983E-1,2.431599982E-2,4.693600163E-2,1.257019249E-1
6.216469566E0,-7.409799844E-2,1.928099990E-2,-1.762299985E-2,7.856742616E-2
6.221466102E0,5.400099978E-2,-8.984000422E-3,-1.229100004E-1,1.345499477E-1
6.226462718E0,4.509900138E-2,-4.600000102E-4,-1.421020031E-1,1.490875944E-1
6.231459118E0,-8.085000329E-3,9.988999926E-3,-4.397000000E-2,4.580947773E-2
6.236455732E0,-6.868999917E-3,-5.009000190E-3,3.025400080E-2,3.142575070E-2
6.241452258E0,3.164000111E-3,-4.889000207E-3,3.930999897E-3,7.026092792E-3
6.246448871E0,-2.398000099E-3,2.483000048E-3,-7.987499982E-2,7.994955466E-2
6.251445219E0,-4.834999796E-3,2.493999898E-3,-1.086060032E-1,1.087421776E-1
6.256441756E0,2.981999889E-3,-4.383000080E-3,-5.590999871E-2,5.616076005E-2
6.261438352E0,7.848000154E-3,-6.246000063E-3,-3.217000049E-3,1.053340935E-2
6.266434739E0,2.360000071E-4,1.261000056E-3,-1.518699992E-2,1.524108867E-2
6.271431352E0,-6.810000166E-3,5.770000163E-3,-6.068399921E-2,6.133691192E-2
6.276427921E0,-8.693000302E-3,7.942000404E-3,-8.222799748E-2,8.306676348E-2
6.281424535E0,-7.970000152E-4,6.200000062E-4,-5.588300154E-2,5.589212350E-2
6.286420921E0,6.475000177E-3,-1.567000058E-3,-2.714299969E-2,2.794858760E-2
6.291417471E0,3.600999946E-3,9.260000079E-4,-3.433400020E-2,3.453473970E-2
6.296414086E0,1.090000034E-3,8.016999811E-3,-6.067299843E-2,6.121007372E-2
6.301410717E0,1.130999997E-3,7.600999903E-3,-7.265800238E-2,7.306325800E-2
6.306407103E0,1.084999996E-3,4.966000095E-3,-5.590900034E-2,5.613960011E-2
6.311403645E0,3.408000106E-3,7.087999955E-3,-2.718799934E-2,2.830267684E-2
6.316400260E0,5.477999803E-3,4.054999910E-3,-3.200500086E-2,3.272264638E-2
6.321396876E0,7.482000161E-3,3.688999917E-3,-6.315000355E-2,6.369860277E-2
6.326393247E0,-2.494999906E-3,6.045999937E-3,-7.752399892E-2,7.779941868E-2
6.331389784E0,-6.800000090E-3,5.847999826E-3,-6.076300144E-2,6.142134358E-2
6.336386170E0,9.960000170E-4,-4.062999971E-3,-3.442599997E-2,3.467923671E-2
6.341382784E0,3.288999898E-3,-8.516999893E-3,-2.484099939E-2,2.646567699E-2
6.346379324E0,-1.813999959E-3,1.747000031E-3,-4.158199951E-2,4.165819593E-2
6.351375723E0,-6.345999893E-3,4.104000051E-3,-6.073100120E-2,6.119942024E-2
6.356372336E0,-3.272000002E-3,1.524999971E-3,-5.354100093E-2,5.366256041E-2
6.361368877E0,4.310000222E-3,-5.638999864E-3,-3.677000105E-2,3.744873027E-2
6.366365490E0,8.817000315E-3,-9.843000211E-3,-3.197000176E-2,3.459342654E-2
6.371362106E0,9.609999834E-4,2.950999886E-3,-4.871499911E-2,4.881375892E-2
6.376358492E0,-6.085000001E-3,5.224999972E-3,-5.829399824E-2,5.884316511E-2
6.381355034E0,-7.722000126E-3,4.937999882E-3,-5.110400170E-2,5.191947726E-2
6.386351649E0,-2.152000088E-3,-1.340000017E-4,-4.152199998E-2,4.157794539E-2
6.391348036E0,5.239999737E-4,-7.191000041E-3,-3.672400117E-2,3.742508944E-2
6.396344644E0,5.680000177E-4,-1.685000025E-3,-4.627500102E-2,4.630915210E-2
6.401341185E0,3.022999968E-3,3.373000072E-3,-5.823500082E-2,5.841088065E-2
6.406337569E0,-4.288000055E-3,-1.541999984E-3,-5.584799871E-2,5.603359410E-2
6.411334169E0,-3.793000011E-3,-6.043000147E-3,-4.385900125E-2,4.443553410E-2
6.416330709E0,3.715999890E-3,-7.210000185E-4,-3.664999828E-2,3.684495718E-2
6.421327312E0,3.384999931E-3,6.517000031E-3,-4.144300148E-2,4.208861943E-2
6.426323699E0,3.195999889E-3,1.085899957E-2,-5.103800073E-2,5.227819627E-2
6.431320312E0,5.433999933E-3,4.900000058E-4,-4.867500067E-2,4.897983407E-2
6.436316853E0,5.080999807E-3,2.976000076E-3,-4.149499908E-2,4.191071563E-2
6.441313485E0,4.745999817E-3,5.228000227E-3,-3.911399841E-2,3.974621205E-2
6.446309872E0,-3.509999951E-4,2.490000101E-3,-4.870700091E-2,4.877186934E-2
6.451306408E0,-4.995999858E-3,4.803999793E-3,-4.870700091E-2,4.919766627E-2
6.456303019E0,3.349999897E-4,2.130999928E-3,-4.391900077E-2,4.397194577E-2
6.461299405E0,2.805999946E-3,4.461000208E-3,-4.631400108E-2,4.661288293E-2
6.466295990E0,2.675000113E-3,8.992999792E-3,-4.393099993E-2,4.492173668E-2
6.471292530E0,1.570000022E-4,8.340000175E-3,-3.916700184E-2,4.004540280E-2
6.476289144E0,2.370000002E-4,2.943000058E-3,-4.157999903E-2,4.168469429E-2
6.481285530E0,-2.179000061E-3,4.079999926E-4,-4.876799881E-2,4.881835939E-2
6.486282067E0,2.909000032E-3,-1.888000057E-3,-4.875899851E-2,4.888217222E-2
6.491278678E0,7.561000064E-3,3.195000114E-3,-4.635699838E-2,4.707810581E-2
6.496275065E0,2.229999984E-3,5.442999769E-3,-4.637400061E-2,4.674555678E-2
6.501271596E0,4.433999769E-3,3.150000121E-4,-4.878199846E-2,4.898410918E-2
6.506268212E0,8.954999968E-3,-1.972000115E-3,-5.117800087E-2,5.199296666E-2
6.511264598E0,1.013000030E-3,-4.054000136E-3,-4.639599845E-2,4.658379287E-2
6.516261226E0,-1.462999964E-3,-1.081999973E-3,-4.398300126E-2,4.402062577E-2
6.521257766E0,1.160999993E-3,1.522999955E-3,-4.157799855E-2,4.162207843E-2
6.526254380E0,3.447999945E-3,8.689000271E-3,-4.158100113E-2,4.261885832E-2
6.531250752E0,7.510000141E-4,8.759999764E-4,-4.639599845E-2,4.641034420E-2
6.536247289E0,6.919999723E-4,-6.254999898E-3,-4.878899828E-2,4.919319303E-2
6.541243908E0,-4.149999935E-3,1.703000045E-3,-4.397600144E-2,4.420420129E-2
6.546240295E0,-1.087499969E-2,-5.504000001E-3,-4.157400131E-2,4.332386432E-2
6.551236913E0,-9.844999760E-3,-9.705999866E-3,-4.153199866E-2,4.377256409E-2
6.556233454E0,-1.821000013E-3,-3.973999992E-3,-4.866600037E-2,4.886193108E-2
6.561230067E0,-4.048999865E-3,-3.499000100E-3,-4.625099897E-2,4.655955657E-2
6.566226454E0,-1.198000042E-3,-6.779999821E-4,-4.622799903E-2,4.624848952E-2
6.571223067E0,-3.378999885E-3,4.399000201E-3,-4.621399939E-2,4.654570423E-2
6.576219598E0,-7.871000096E-3,4.147999920E-3,-4.142700136E-2,4.237162951E-2
6.581216212E0,2.479000017E-3,8.693999611E-3,-3.902500123E-2,4.005847964E-2
6.586212612E0,7.149000186E-3,5.766000133E-3,-3.904699907E-2,4.011263015E-2
6.591209149E0,6.632999983E-3,7.770999800E-3,-4.146299884E-2,4.270322469E-2
6.596205764E0,1.377000008E-3,4.823000170E-3,-4.867399856E-2,4.893174426E-2
6.601202151E0,1.369999954E-3,-2.430000022E-4,-4.868400097E-2,4.870387971E-2
6.606198687E0,3.759999992E-3,2.304000081E-3,-3.910300136E-2,3.935086697E-2
6.611195313E0,1.140999957E-3,7.104999851E-3,-3.431800008E-2,3.506434133E-2
6.616191928E0,-1.366000040E-3,9.084999561E-3,-4.151700065E-2,4.252134189E-2
6.621188300E0,1.142999972E-3,6.022999994E-3,-5.111600086E-2,5.148231271E-2
6.626184836E0,5.847000051E-3,7.529999712E-4,-4.634600133E-2,4.671944197E-2
6.631181223E0,7.745000068E-3,7.996999659E-3,-4.395800084E-2,4.534581422E-2
6.636177846E0,7.081000134E-3,7.430000231E-3,-4.878000170E-2,4.984810961E-2
6.641174387E0,4.193000030E-3,-2.559999994E-4,-5.359600112E-2,5.376037687E-2
6.646171000E0,1.560000004E-3,7.094000001E-3,-5.359600112E-2,5.408594801E-2
6.651167397E0,1.548000029E-3,1.842999947E-3,-5.121599883E-2,5.127252177E-2
6.656164010E0,1.533000031E-3,-5.690000253E-4,-6.079399958E-2,6.081598668E-2
6.661160580E0,8.717999794E-3,6.932999939E-3,-5.360100046E-2,5.474611638E-2
6.666156964E0,9.050000226E-4,4.093000200E-3,-3.686999902E-2,3.710752624E-2
6.671153583E0,-6.264999975E-3,3.737000050E-3,-3.448700160E-2,3.525008756E-2
6.676150123E0,-8.140999824E-3,1.010000007E-3,-4.166899994E-2,4.246883015E-2
6.681146756E0,-2.555999905E-3,-1.356999972E-3,-4.404899850E-2,4.414395603E-2
6.686143142E0,7.340999786E-3,-1.120000030E-3,-3.924499825E-2,3.994138913E-2
6.691139756E0,1.912000007E-3,-9.169999976E-4,-4.164399952E-2,4.169795353E-2
6.696136296E0,-3.042999888E-3,4.060000181E-3,-4.882400110E-2,4.908692834E-2
6.701132910E0,-2.739999909E-4,8.631999604E-3,-4.882600158E-2,4.958391800E-2
6.706129310E0,2.256999956E-3,8.023000322E-3,-4.884200171E-2,4.954799404E-2
6.711125924E0,4.571999889E-3,2.677999903E-3,-5.125600100E-2,5.152914228E-2
6.716122464E0,4.404999781E-3,2.584999893E-3,-5.126300082E-2,5.151680794E-2
6.721118849E0,9.142000228E-3,-2.284999937E-3,-5.605600029E-2,5.684252424E-2
6.726115385E0,1.326700021E-2,-9.115999565E-3,-4.168999940E-2,4.468971686E-2
6.731111982E0,-2.665000036E-3,-5.719000008E-3,-1.056499965E-2,1.230562489E-2
6.736108597E0,-5.329399928E-2,1.623300090E-2,-2.971399948E-2,6.314018089E-2
6.741104974E0,-2.197699994E-2,1.719499938E-2,-1.278200001E-1,1.308304588E-1
6.746101510E0,1.466419995E-1,-4.836900160E-2,-1.134169996E-1,1.915903237E-1
6.751098125E0,4.099100083E-2,-3.395099938E-2,7.803399861E-2,9.445759603E-2
6.756094517E0,-2.819600105E-1,8.330299705E-2,4.450700060E-2,2.973578819E-1
6.761091130E0,8.917500079E-2,-2.482499927E-2,-1.491889954E-1,1.755728273E-1
6.766087676E0,2.034099996E-1,-5.553900078E-2,-7.504100353E-2,2.238109934E-1
6.771084289E0,-1.804859936E-1,6.220399961E-2,-6.324499846E-2,2.011080836E-1
6.776080676E0,6.314899772E-2,-2.896000072E-2,-8.026000112E-3,6.993492856E-2
6.781077226E0,-5.213800073E-2,1.881399937E-2,-8.051999845E-3,5.601046682E-2
6.786073613E0,3.627099842E-2,-1.411799993E-2,-6.069299951E-2,7.210092536E-2
6.791070212E0,-2.834999934E-3,6.521999836E-3,-7.746600360E-2,7.779174390E-2
6.796066753E0,-2.439099923E-2,1.596399955E-2,-3.677099943E-2,4.692415715E-2
6.801063366E0,5.201900005E-2,-3.548400104E-2,-2.479399927E-2,6.767446414E-2
6.806059753E0,-7.947400212E-2,3.684499860E-2,-2.718300000E-2,9.172015277E-2
6.811056366E0,1.502809972E-1,-5.253800005E-2,-3.911700100E-2,1.639352290E-1
6.816052907E0,-1.615860015E-1,6.679199636E-2,-1.373849958E-1,2.223642142E-1
6.821049296E0,1.063570008E-1,-1.989500038E-2,1.116300002E-2,1.087760784E-1
6.826045910E0,2.827999927E-2,-4.936600104E-2,-8.712100238E-2,1.040520517E-1
6.831042515E0,-1.853040010E-1,1.034760028E-1,-1.759600081E-2,2.129659014E-1
6.836039056E0,2.759410143E-1,-1.016660035E-1,2.074100077E-2,2.948043567E-1
6.841035440E0,-1.638759971E-1,2.415000089E-2,-2.021020055E-1,2.613116637E-1
6.846032054E0,-1.091509983E-1,9.925699979E-2,2.078299969E-2,1.489893470E-1
6.851028594E0,3.314270079E-1,-1.628589928E-1,2.309799939E-2,3.700005820E-1
6.856024979E0,-2.281409949E-1,2.791300043E-2,-1.829030067E-1,2.937362065E-1
6.861021587E0,-1.633110046E-1,1.504199952E-1,4.964600131E-2,2.275112846E-1
6.866018128E0,3.797399998E-1,-1.521199942E-1,5.190100148E-2,4.123550339E-1
6.871014737E0,-9.739799798E-2,-5.804299936E-2,-2.284390032E-1,2.550288964E-1
6.876011124E0,-3.382039964E-1,2.253320068E-1,-3.654899821E-2,4.080346624E-1
6.881007640E0,2.819370031E-1,-3.070599958E-2,1.501549929E-1,3.209016268E-1
6.886004256E0,2.299470007E-1,-2.368389964E-1,-1.351799965E-1,3.567099169E-1
6.891000642E0,-3.714919984E-1,1.093479991E-1,-2.162490040E-1,4.435390868E-1
6.895997256E0,-1.216500029E-1,2.226620018E-1,9.053499997E-2,2.693950194E-1
6.900993796E0,4.033769965E-1,-1.672600061E-1,9.970200062E-2,4.479167332E-1
6.905990380E0,6.337600201E-2,-2.181389928E-1,-2.093880028E-1,3.089408900E-1
6.910986767E0,-4.017739892E-1,1.986259967E-1,-1.633220017E-1,4.770206507E-1
6.915983405E0,-4.889800027E-2,2.369399965E-1,1.336680055E-1,2.764031694E-1
6.920979945E0,3.885599971E-1,-1.997150034E-1,7.323300093E-2,4.429763271E-1
6.925976330E0,8.329200000E-2,-2.763569951E-1,-2.189760059E-1,3.622999271E-1
6.930972866E0,-3.690060079E-1,1.647879928E-1,-1.895080060E-1,4.463561367E-1
6.935969481E0,-1.529060006E-1,3.280850053E-1,1.027230024E-1,3.762605891E-1
6.940965873E0,3.242369890E-1,-9.013400227E-2,1.236120015E-1,3.585159555E-1
6.945962486E0,2.516829967E-1,-3.773460090E-1,-1.616459936E-1,4.815223449E-1
6.950959008E0,-2.269199938E-1,-4.041299969E-2,-2.758330107E-1,3.594575690E-1
6.955955393E0,-3.244389892E-1,3.875600100E-1,-2.869799919E-2,5.062479572E-1
6.960952006E0,9.067600220E-2,2.013079971E-1,1.838099957E-1,2.872858534E-1
6.965948626E0,3.631609976E-1,-3.067089915E-1,1.308699977E-2,4.755287428E-1
6.970945167E0,8.861199766E-2,-3.260880113E-1,-2.500349879E-1,4.203605267E-1
6.975941551E0,-3.162339926E-1,1.483110040E-1,-1.940619946E-1,3.995749613E-1
6.980938140E0,-2.315910012E-1,4.136210084E-1,7.176999748E-2,4.794451616E-1
6.985934680E0,2.066300064E-1,6.726700068E-2,1.691499949E-1,2.753770682E-1
6.990931299E0,3.401950002E-1,-3.839559853E-1,-4.689799994E-2,5.151254791E-1
6.995927685E0,-1.984999981E-3,-2.767980099E-1,-2.642270029E-1,3.826708606E-1
7.000924309E0,-3.439199924E-1,2.268030047E-1,-1.579719931E-1,4.412207098E-1
7.005920849E0,-1.995680034E-1,4.158020020E-1,8.850400150E-2,4.696292698E-1
7.010917253E0,2.167209983E-1,2.617399953E-2,1.499180049E-1,2.648178195E-1
7.015913866E0,3.229979873E-1,-4.047839940E-1,-4.927999899E-2,5.201983274E-1
7.020910402E0,8.627000265E-3,-2.814689875E-1,-2.521489859E-1,3.779924961E-1
7.025907015E0,-3.221800029E-1,2.272650003E-1,-1.602520049E-1,4.255937496E-1
7.030903402E0,-2.084310055E-1,4.401730001E-1,8.617799729E-2,4.945931674E-1
7.035899932E0,1.870740056E-1,6.523700058E-2,1.594990045E-1,2.543471687E-1
7.040896548E0,3.294680119E-1,-3.881880045E-1,-3.974900022E-2,5.107044945E-1
7.045892921E0,6.253399700E-2,-3.166249990E-1,-2.522679865E-1,4.096352375E-1
7.050889535E0,-2.920449972E-1,1.688430011E-1,-1.866880059E-1,3.855523972E-1
7.055886075E0,-2.501330078E-1,4.490169883E-1,4.789699987E-2,5.162140059E-1
7.060882689E0,1.226200014E-1,1.475259960E-1,1.739190072E-1,2.589351372E-1
7.065879079E0,3.301779926E-1,-3.510540128E-1,1.048399974E-2,4.820439201E-1
7.070875616E0,1.351580024E-1,-3.880879879E-1,-2.141380012E-1,4.633951397E-1
7.075872231E0,-2.448399961E-1,5.318500102E-2,-2.083169967E-1,3.258392842E-1
7.080868627E0,-3.097989857E-1,4.344669878E-1,-4.569000099E-3,5.336270709E-1
7.085865163E0,1.787899993E-2,2.777290046E-1,1.742289960E-1,3.283425067E-1
7.090861789E0,3.105440140E-1,-2.271250039E-1,6.089200079E-2,3.895268769E-1
7.095858175E0,2.223470062E-1,-4.329549968E-1,-1.688749939E-1,5.151766532E-1
7.100854697E0,-1.385869980E-1,-1.078149974E-1,-2.636600137E-1,3.167759973E-1
7.105851312E0,-3.297800124E-1,3.691430092E-1,-1.002470031E-1,5.050454231E-1
7.110847699E0,-1.245559976E-1,4.023459852E-1,1.266279966E-1,4.398080693E-1
7.115844250E0,2.350849956E-1,-4.836999997E-2,1.209309995E-1,2.687543836E-1
7.120840866E0,3.015039861E-1,-4.250710011E-1,-7.809499651E-2,5.269618943E-1
7.125837481E0,2.247299999E-2,-2.926540077E-1,-2.569189966E-1,3.900753449E-1
7.130833858E0,-2.902840078E-1,1.859640032E-1,-1.793680042E-1,3.886132996E-1
7.135830394E0,-2.532309890E-1,4.551630020E-1,4.319399968E-2,5.226519050E-1
7.140827009E0,7.900000364E-2,1.938419938E-1,1.596260071E-1,2.632416785E-1
7.145823396E0,3.091799915E-1,-3.015399873E-1,2.007899992E-2,4.323445354E-1
7.150820009E0,1.971340030E-1,-4.363119900E-1,-1.951069981E-1,5.170074550E-1
7.155816550E0,-1.473490000E-1,-7.728700340E-2,-2.491240054E-1,2.995793364E-1
7.160812935E0,-3.210459948E-1,3.752889931E-1,-8.100999892E-2,5.004747536E-1
7.165809558E0,-1.190500036E-1,3.982790112E-1,1.314550042E-1,4.359810687E-1
7.170806098E0,2.161699980E-1,-3.522999957E-2,1.281570047E-1,2.537613816E-1
7.175802712E0,3.057309985E-1,-4.154559970E-1,-6.129499897E-2,5.194537571E-1
7.180799102E0,7.183700055E-2,-3.270640075E-1,-2.401629984E-1,4.120797077E-1
7.185795639E0,-2.499430031E-1,1.185460016E-1,-2.032800019E-1,3.432891179E-1
7.190792231E0,-2.905279994E-1,4.510290027E-1,-2.131999936E-3,5.365055686E-1
7.195788847E0,-7.600999903E-3,2.880879939E-1,1.550399959E-1,3.272458827E-1
7.200785233E0,2.776629925E-1,-1.983709931E-1,6.807000190E-2,3.479674029E-1
7.205781823E0,2.664679885E-1,-4.449740052E-1,-1.377920061E-1,5.366504367E-1
7.210778132E0,-3.602200001E-2,-2.074940056E-1,-2.541899979E-1,3.300968068E-1
7.215774746E0,-2.982710004E-1,2.567040026E-1,-1.528580040E-1,4.221707048E-1
7.220771284E0,-2.272160053E-1,4.551860094E-1,5.751499906E-2,5.119857335E-1
7.225767900E0,8.848699927E-2,1.532769948E-1,1.403959990E-1,2.259088814E-1
7.230764276E0,3.084180057E-1,-3.122189939E-1,1.292099990E-2,4.390550292E-1
7.235760813E0,2.132969946E-1,-4.267880023E-1,-1.782819927E-1,5.093408247E-1
7.240757442E0,-1.157269999E-1,-9.971799701E-2,-2.443110049E-1,2.881393492E-1
7.245754058E0,-3.280189931E-1,3.381530046E-1,-1.120859981E-1,4.842594195E-1
7.250750444E0,-1.827449948E-1,4.361819923E-1,9.330499917E-2,4.820334909E-1
7.255746981E0,1.411229968E-1,6.887599826E-2,1.474590003E-1,2.154153201E-1
7.260743367E0,3.087230027E-1,-3.631770015E-1,-6.225999910E-3,4.767034611E-1
7.265739971E0,1.655839980E-1,-4.086610079E-1,-1.972679943E-1,4.830492121E-1
7.270736511E0,-1.570030004E-1,-3.993299976E-2,-2.369170040E-1,2.870091521E-1
7.275733125E0,-3.203110099E-1,3.855009973E-1,-8.567000180E-2,5.084776408E-1
7.280729511E0,-1.446920037E-1,4.195840061E-1,1.099990010E-1,4.572595481E-1
7.285726125E0,1.782889962E-1,1.517600007E-2,1.330139935E-1,2.229573942E-1
7.290722684E0,3.093459904E-1,-3.884719908E-1,-2.538499981E-2,4.972422223E-1
7.295719069E0,1.400150061E-1,-3.934830129E-1,-2.067659944E-1,4.660313936E-1
7.300715687E0,-1.683720052E-1,2.724000020E-3,-2.320429981E-1,2.867063049E-1
7.305712228E0,-3.020690084E-1,4.076550007E-1,-6.655500084E-2,5.117204838E-1
7.310708588E0,-9.219499677E-2,3.632209897E-1,1.290200055E-1,3.963276001E-1
7.315705202E0,2.791779935E-1,-1.248919964E-1,1.114009991E-1,3.254973816E-1
7.320701752E0,2.392520010E-1,-3.348000050E-1,-1.329720020E-1,4.324512882E-1
7.325698137E0,-2.863669991E-1,6.542599946E-2,-2.065930068E-1,3.591201611E-1
7.330694759E0,-3.649299964E-2,1.297779977E-1,5.468099937E-2,1.454787937E-1
7.335691375E0,2.087839991E-1,-8.243600279E-2,-3.181999922E-2,2.267133988E-1
7.340687915E0,-1.467279941E-1,5.401099846E-2,-9.179399908E-2,1.813075577E-1
7.345684300E0,6.233699992E-2,-5.454000086E-3,-1.268099993E-2,6.384712551E-2
7.350680836E0,-2.803999931E-3,-7.453999948E-3,-5.826399848E-2,5.880576544E-2
7.355677451E0,-4.074100032E-2,2.926100045E-2,-5.344200134E-2,7.329449340E-2
7.360673843E0,1.017429978E-1,-2.806599997E-2,-2.471599914E-2,1.083984251E-1
7.365670456E0,-1.346759945E-1,5.331499875E-2,-4.875700176E-2,1.528311415E-1
7.370667082E0,1.002030000E-1,-3.733399883E-2,-9.175699949E-2,1.409035686E-1
7.375663622E0,1.709100045E-2,-2.609000076E-3,2.071000077E-2,2.697801530E-2
7.380660036E0,-1.855800003E-1,6.436599791E-2,-7.508900017E-2,2.102885545E-1
7.385656572E0,1.783580035E-1,-4.861199856E-2,-9.646800160E-2,2.085204526E-1
7.390653202E0,4.311000183E-2,-1.528200042E-2,3.504600003E-2,5.762147094E-2
7.395649588E0,-2.102199942E-1,6.470999867E-2,-2.486200072E-2,2.213548033E-1
7.400646202E0,4.772900045E-2,1.534000039E-3,-1.443870068E-1,1.520789872E-1
7.405642752E0,1.906599998E-1,-4.814599827E-2,-9.654899687E-2,2.190684402E-1
7.410639137E0,-3.642399982E-2,4.505999852E-3,3.496199846E-2,5.068878706E-2
7.415635750E0,-1.467189938E-1,3.971600160E-2,2.061600052E-2,1.533911451E-1
7.420632276E0,-5.429000128E-3,4.701999947E-3,-9.179999679E-2,9.208052051E-2
7.425628889E0,7.445300370E-2,-2.178199962E-2,-1.540340036E-1,1.724650096E-1
7.430625267E0,1.145100035E-2,-2.261999995E-3,-7.744300365E-2,7.831769192E-2
7.435621803E0,-2.955500036E-2,1.033299975E-2,3.031099960E-2,4.357781118E-2
7.440618438E0,-8.280000184E-4,-2.826000098E-3,2.792700008E-2,2.808183031E-2
7.445614824E0,5.778000224E-3,-5.382999778E-3,-5.349300057E-2,5.407275731E-2
7.450611438E0,9.400000272E-5,1.437999960E-2,-1.109509990E-1,1.118790302E-1
7.455607978E0,1.696900092E-2,1.366200019E-2,-9.182099998E-2,9.436998081E-2
7.460604363E0,1.361500006E-2,-3.805000102E-3,-2.721999958E-2,3.067204965E-2
7.465600966E0,-6.320999935E-3,-3.509999951E-3,-8.900000248E-4,7.284726480E-3
7.470597507E0,-8.043999784E-3,6.047000177E-3,-4.157900065E-2,4.277949788E-2
7.475593891E0,-9.751000442E-3,1.282200031E-2,-8.228100091E-2,8.384300098E-2
7.480590505E0,-1.757999999E-3,9.761000052E-3,-7.031600177E-2,7.101202568E-2
7.485587045E0,1.041499991E-2,2.141000004E-3,-3.201799840E-2,3.373734319E-2
7.490583645E0,9.606000036E-3,-5.140000023E-3,-2.246100083E-2,2.496380170E-2
7.495580031E0,6.455999799E-3,-2.458000090E-3,-4.162099957E-2,4.219039350E-2
7.500576577E0,-3.572999965E-3,2.548000077E-3,-7.274799794E-2,7.288024312E-2
7.505573192E0,-3.105999902E-3,-4.548000172E-3,-7.273499668E-2,7.294320587E-2
7.510569574E0,-2.889999887E-4,-8.638000116E-3,-3.918299824E-2,4.012487904E-2
7.515566110E0,-2.720000048E-4,-5.501999985E-3,-2.239800058E-2,2.306548109E-2
7.520562736E0,2.106999978E-3,-2.684999956E-3,-4.632600024E-2,4.645155511E-2
7.525559122E0,-9.934999980E-3,6.500000018E-5,-7.504600286E-2,7.570079917E-2
7.530555736E0,-1.360299997E-2,4.780000017E-4,-7.021900266E-2,7.152606817E-2
7.535552266E0,-1.227900013E-2,3.235999960E-3,-4.144899920E-2,4.335049105E-2
7.540548651E0,5.535000004E-3,3.068000078E-3,-2.946400084E-2,3.013596182E-2
7.545545255E0,1.461299974E-2,5.171999801E-3,-5.342600122E-2,5.562937129E-2
7.550541796E0,3.800000064E-3,9.665000252E-3,-7.022000104E-2,7.098380644E-2
7.555538409E0,-1.165000023E-3,6.742000114E-3,-6.545300037E-2,6.580962732E-2
7.560534791E0,-9.210000280E-4,1.660999958E-3,-4.869899899E-2,4.873602019E-2
7.565531327E0,4.060000181E-3,-7.420000038E-4,-2.954100072E-2,2.982792130E-2
7.570527914E0,1.398000051E-3,1.688000048E-3,-4.391099885E-2,4.396566352E-2
7.575524300E0,-1.112999977E-3,6.345999893E-3,-7.025600225E-2,7.055080677E-2
7.580520808E0,1.424000016E-3,5.996000022E-3,-6.787099689E-2,6.815021652E-2
7.585517423E0,1.450999989E-3,5.774000194E-3,-5.111600086E-2,5.146153926E-2
7.590513810E0,1.444999943E-3,3.128000069E-3,-3.915499896E-2,3.930631441E-2
7.595510428E0,1.313999994E-3,-1.927000005E-3,-4.156000167E-2,4.162539686E-2
7.600506969E0,3.696999978E-3,-1.753999968E-3,-5.592000112E-2,5.606951801E-2
7.605503582E0,1.108000055E-3,9.459999856E-4,-6.070199981E-2,6.071948091E-2
7.610499999E0,1.148000010E-3,3.427000018E-3,-4.872699827E-2,4.886084929E-2
7.615496535E0,3.449999960E-3,8.730000118E-4,-4.394700006E-2,4.409085441E-2
7.620493149E0,7.609999739E-4,-1.475999947E-3,-4.634499922E-2,4.637474151E-2
7.625489536E0,3.199999919E-3,5.958000198E-3,-5.351899937E-2,5.394461103E-2
7.630486059E0,3.152000019E-3,5.698000081E-3,-6.071100011E-2,6.105921588E-2
7.635482674E0,5.410999991E-3,6.919999723E-4,-5.593299866E-2,5.619838186E-2
7.640479061E0,1.800000027E-4,-3.896000097E-3,-4.157000035E-2,4.175255856E-2
7.645475679E0,-2.228999976E-3,-5.847000051E-3,-4.155499861E-2,4.202349057E-2
7.650471989E0,-1.936999965E-3,1.843999955E-3,-4.871299863E-2,4.878635609E-2
7.655468602E0,-1.764000044E-3,1.717000036E-3,-4.871600121E-2,4.877815658E-2
7.660465217E0,7.910000277E-4,-3.084999975E-3,-5.110700056E-2,5.120613647E-2
7.665461758E0,-4.050999880E-3,-2.859999950E-4,-4.630300030E-2,4.648075121E-2
7.670458114E0,1.086000004E-3,-4.922000226E-3,-4.868699983E-2,4.894721069E-2
7.675454727E0,8.286000229E-3,-4.259000067E-3,-5.584599823E-2,5.661777459E-2
7.680451296E0,2.912000054E-3,8.336000144E-3,-5.344299972E-2,5.416754436E-2
7.685447681E0,7.571999915E-3,1.734500006E-2,-4.388900101E-2,4.779569666E-2
7.690444294E0,-2.570000070E-4,1.118800044E-2,-3.676500171E-2,3.843049250E-2
7.695440849E0,-2.641000086E-3,5.537999794E-3,-4.158199951E-2,4.203221391E-2
7.700437462E0,-2.417000011E-3,9.963000193E-3,-5.116700009E-2,5.218395500E-2
7.705433849E0,-4.588999785E-3,2.063999884E-3,-5.837000161E-2,5.858648396E-2
7.710430472E0,-4.062999971E-3,-2.636000048E-3,-5.117300153E-2,5.140167848E-2
7.715427013E0,3.586000064E-3,-2.165999962E-3,-4.636000097E-2,4.654890592E-2
7.720423382E0,8.175999857E-3,-1.855000039E-3,-4.395899922E-2,4.475133083E-2
7.725419919E0,2.788000042E-3,-1.573999994E-3,-4.874999821E-2,4.885501761E-2
7.730416534E0,2.640000021E-4,1.194000011E-3,-5.592299998E-2,5.593636794E-2
7.735412936E0,2.657999983E-3,1.350000035E-3,-5.112899840E-2,5.121583682E-2
7.740409549E0,7.333000191E-3,1.479999977E-3,-5.112800002E-2,5.167238796E-2
7.745406090E0,2.032000106E-3,6.281999871E-3,-5.353000015E-2,5.393564186E-2
7.750402483E0,-4.130000016E-4,8.283999749E-3,-5.354499817E-2,5.418359576E-2
7.755399020E0,-2.648999915E-3,5.324999802E-3,-5.835000053E-2,5.865232634E-2
7.760395616E0,-4.579999950E-3,7.422000170E-3,-5.835099891E-2,5.899916575E-2
7.765392232E0,7.319999859E-4,2.155999886E-3,-4.638300091E-2,4.643885155E-2
7.770388632E0,-1.509999973E-3,-2.960000129E-4,-5.117300153E-2,5.119613073E-2
7.775385169E0,-3.551000031E-3,4.656000063E-3,-5.834300071E-2,5.863611233E-2
7.780381828E0,1.673000050E-3,4.416000098E-3,-5.594699830E-2,5.614594023E-2
7.785378215E0,4.050999880E-3,6.688000169E-3,-5.355799943E-2,5.412577251E-2
7.790374736E0,1.429000054E-3,1.474000048E-3,-5.118300021E-2,5.122415668E-2
7.795371123E0,6.213000044E-3,3.776999889E-3,-5.358099937E-2,5.407208699E-2
7.800367721E0,3.404000076E-3,5.994999781E-3,-5.120100081E-2,5.166304020E-2
7.805364262E0,-1.556999981E-3,8.309999830E-4,-5.121700093E-2,5.124739988E-2
7.810360875E0,-3.698999994E-3,-3.889000043E-3,-5.360399932E-2,5.387203045E-2
7.815357262E0,-8.670000243E-4,-1.013000030E-3,-5.357800052E-2,5.359458925E-2
7.820353798E0,1.615999965E-3,-3.171999939E-3,-5.835700035E-2,5.846548152E-2
7.825350423E0,-8.890000172E-4,-3.440000000E-4,-5.116000026E-2,5.116888004E-2
7.830347038E0,-3.089000005E-3,2.217999892E-3,-4.636200145E-2,4.651770225E-2
7.835343348E0,-2.715999959E-3,-5.026999861E-3,-5.354100093E-2,5.384501986E-2
7.840339952E0,-4.757999908E-3,4.450000124E-4,-5.829799920E-2,5.849353211E-2
7.845336339E0,-1.826000051E-3,5.690000253E-4,-5.828300118E-2,5.831437442E-2
7.850332961E0,-1.641000039E-3,-1.815999974E-3,-5.588399991E-2,5.593757399E-2
7.855329502E0,-1.475999947E-3,7.820000174E-4,-5.587400123E-2,5.589896344E-2
7.860325886E0,3.565999912E-3,3.262999933E-3,-5.107700080E-2,5.130519988E-2
7.865322510E0,1.056199986E-2,3.122000024E-3,-5.108499900E-2,5.225877771E-2
7.870319050E0,9.774000384E-3,2.993999980E-3,-6.547199935E-2,6.626520820E-2
7.875315644E0,-6.029999931E-4,5.249999813E-4,-5.830800161E-2,5.831348288E-2
7.880312030E0,1.870000036E-3,-1.752999960E-3,-4.633099958E-2,4.640184728E-2
7.885308567E0,4.108999856E-3,-1.475999947E-3,-4.632499814E-2,4.653029022E-2
7.890305168E0,1.364000025E-3,3.565999912E-3,-4.393099993E-2,4.409659405E-2
7.895301555E0,1.350000035E-3,3.380999900E-3,-4.154299945E-2,4.170221173E-2
7.900298077E0,3.729999997E-3,-1.689000055E-3,-4.873599857E-2,4.890770060E-2
