"Time (s)","Linear Acceleration x (m/s^2)","Linear Acceleration y (m/s^2)","Linear Acceleration z (m/s^2)","Absolute acceleration (m/s^2)"
1.025553900E-2,-4.293600097E-2,5.971999839E-2,3.836730123E-1,3.906596456E-1
1.525091600E-2,1.789470017E-1,2.930119932E-1,-1.565598965E0,1.602803224E0
2.024753100E-2,2.590239942E-1,-1.114019975E-1,-1.920685053E0,1.941271467E0
2.524383900E-2,-2.720780075E-1,-2.864190042E-1,-1.147489995E-1,4.113752800E-1
3.024023700E-2,-5.369430184E-1,5.429400131E-2,1.414111018E0,1.513593610E0
3.523677400E-2,-1.558569968E-1,3.636609912E-1,1.361449003E0,1.417774350E0
4.023316100E-2,2.536549866E-1,1.275649965E-1,2.587830126E-1,3.841644546E-1
4.522946800E-2,3.980210125E-1,-2.673389912E-1,-1.152258039E0,1.248034234E0
5.022600500E-2,1.617880017E-1,-2.709029913E-1,-1.675933003E0,1.705378322E0
5.522240100E-2,-2.982290089E-1,1.695969999E-1,-2.883349955E-1,4.481526010E-1
6.021893800E-2,-3.561669886E-1,4.241189957E-1,1.126597047E0,1.255369568E0
6.521532400E-2,-3.310300037E-2,1.491349936E-1,1.269263029E0,1.278423127E0
7.021186100E-2,1.896059960E-1,-2.857449949E-1,-9.852100164E-2,3.568010981E-1
7.520824800E-2,8.435899764E-2,-3.259859979E-1,-1.110803008E0,1.160718154E0
8.020478400E-2,-1.645260006E-1,9.984999895E-2,-8.869029880E-1,9.075437936E-1
8.520117100E-2,-1.380430013E-1,5.036389828E-1,2.313079983E-1,5.711492671E-1
9.019747800E-2,9.677600116E-2,2.473780066E-1,7.974640131E-1,8.405416853E-1
9.519403900E-2,2.173649967E-1,-2.849259973E-1,3.129960001E-1,4.758117924E-1
1.001904250E-1,1.610900089E-2,-4.056690037E-1,-4.910460114E-1,6.371444309E-1
1.051869620E-1,-2.862949967E-1,4.000999965E-3,-6.525660157E-1,7.126171749E-1
1.101833490E-1,-2.540850043E-1,4.993149936E-1,-5.654999986E-3,5.602737111E-1
1.151798850E-1,6.798599660E-2,3.578540087E-1,5.247269869E-1,6.387644308E-1
1.201762000E-1,2.979249954E-1,-2.336490005E-1,2.626720071E-1,4.608120459E-1
1.251725820E-1,1.722439975E-1,-4.897609949E-1,-3.764100075E-1,6.412630666E-1
1.301691160E-1,-1.884279996E-1,-6.568299979E-2,-6.073489785E-1,6.392903481E-1
1.351655030E-1,-2.712750137E-1,4.961520135E-1,-1.087630019E-1,5.758353447E-1
1.401620230E-1,1.617410034E-1,1.631129980E-1,4.241119921E-1,4.823245631E-1
1.451584100E-1,1.126070023E-1,-2.964699864E-1,1.792010069E-1,3.642633535E-1
1.501549460E-1,-2.573390007E-1,8.352100104E-2,-1.123429984E-1,2.929506241E-1
1.551512660E-1,1.510519981E-1,7.850900292E-2,-2.008589953E-1,2.632958520E-1
1.601476480E-1,2.429899946E-2,-6.345999893E-3,-3.113679886E-1,3.123791565E-1
1.651441870E-1,1.055000001E-3,1.508899964E-2,-4.552699998E-2,4.797393732E-2
1.701405640E-1,1.010799967E-2,-1.708500087E-2,1.843100041E-1,1.853759600E-1
1.751368710E-1,-7.672599703E-2,1.665499993E-2,5.741599947E-2,9.726697609E-2
1.801333940E-1,4.559100047E-2,-2.178000053E-3,-5.270500109E-2,6.972159025E-2
1.851300090E-1,-1.492490023E-1,9.164500237E-2,-2.179789990E-1,2.796228087E-1
1.901263810E-1,1.317619979E-1,-3.223399818E-2,-1.365790069E-1,1.924943632E-1
1.951226880E-1,4.829600081E-2,-7.079999894E-3,9.798000008E-2,1.094655677E-1
2.001192200E-1,-1.441970021E-1,5.739200115E-2,-3.375799954E-2,1.588276416E-1
2.051156070E-1,8.801300079E-2,-1.020599995E-2,-1.174969971E-1,1.471597604E-1
2.101121480E-1,1.121139973E-1,-2.324499935E-2,-5.053099990E-2,1.251529478E-1
2.151084580E-1,-1.116830036E-1,4.158199951E-2,-1.948799938E-2,1.207556959E-1
2.201050710E-1,-1.294340044E-1,4.776100069E-2,-5.059000105E-2,1.469476876E-1
2.251013670E-1,4.461399838E-2,-8.984999731E-3,-7.447600365E-2,8.728009046E-2
2.300977510E-1,1.324079931E-1,-3.444200009E-2,-5.534800142E-2,1.475856675E-1
2.350942880E-1,4.241099954E-2,-5.076999776E-3,-3.148699924E-2,5.306505375E-2
2.400906750E-1,-7.151699811E-2,2.408999950E-2,-3.392399848E-2,8.273963239E-2
2.450869820E-1,-7.280500233E-2,2.680999972E-2,-5.544700101E-2,9.536096880E-2
2.500835860E-1,5.000000237E-4,1.029300038E-2,-6.498999894E-2,6.580194388E-2
2.550798950E-1,4.846400023E-2,-1.195800025E-2,-5.543399975E-2,7.459679226E-2
2.600764180E-1,3.263400123E-2,-8.372999728E-3,-3.869900107E-2,5.130982211E-2
2.650728040E-1,-8.194000460E-3,6.725000218E-3,-3.392799944E-2,3.554541345E-2
2.700693460E-1,-2.896999940E-2,1.359999995E-3,-4.590500146E-2,5.429898364E-2
2.750657330E-1,-1.941899955E-2,1.376000000E-3,-5.304900184E-2,5.650829599E-2
2.800622690E-1,6.085000001E-3,6.300999783E-3,-5.062599853E-2,5.137822058E-2
2.850586410E-1,1.023800019E-2,1.222999999E-3,-4.346099868E-2,4.466733464E-2
2.900549480E-1,-1.309999934E-4,8.429000154E-3,-4.826200008E-2,4.899271228E-2
2.950514850E-1,4.863999784E-3,-1.833999995E-3,-5.546300113E-2,5.570607278E-2
3.000478710E-1,2.362000057E-3,-4.015999846E-3,-5.785100162E-2,5.803831224E-2
3.050444080E-1,-2.419000026E-3,1.282999991E-3,-5.544000119E-2,5.550757950E-2
3.100408190E-1,2.575000050E-3,-3.456000006E-3,-4.346499965E-2,4.367814963E-2
3.150371260E-1,4.728999920E-3,4.151000176E-3,-4.106400162E-2,4.154330839E-2
3.200336630E-1,1.906999969E-3,1.521999948E-3,-6.023100019E-2,6.028039910E-2
3.250300490E-1,4.244999960E-3,1.668000012E-3,-6.261999905E-2,6.278587843E-2
3.300266010E-1,1.702000038E-3,1.128000021E-2,-4.825599864E-2,4.958605261E-2
3.350229870E-1,-7.927999832E-3,5.663999822E-3,-4.110100120E-2,4.224010387E-2
3.400195240E-1,-7.269000169E-3,-4.277000204E-3,-3.631300107E-2,3.727955392E-2
3.450159110E-1,5.080000265E-4,9.860000573E-4,-4.347199947E-2,4.348614719E-2
3.500122180E-1,7.524000015E-3,9.250000003E-4,-5.784200132E-2,5.833663787E-2
3.550087550E-1,4.484000150E-3,-3.879999975E-3,-5.785299838E-2,5.815608376E-2
3.600051410E-1,-2.978000091E-3,-9.860000573E-4,-4.826400056E-2,4.836583951E-2
3.650016780E-1,-7.418999914E-3,-7.609999739E-4,-4.585900158E-2,4.646147551E-2
3.699980640E-1,-2.008999931E-3,1.726999995E-3,-4.823999852E-2,4.831269054E-2
3.749946010E-1,5.450000172E-4,1.719000051E-3,-4.584300146E-2,4.587845648E-2
3.799909880E-1,-1.909999992E-3,-6.869999925E-4,-4.584499821E-2,4.588991098E-2
3.849875240E-1,-1.657000044E-3,6.688000169E-3,-4.822900146E-2,4.871869844E-2
3.899839160E-1,9.720000089E-4,1.465999987E-3,-4.823800176E-2,4.827006064E-2
3.949802230E-1,-3.806000110E-3,3.874999937E-3,-5.063299835E-2,5.092348950E-2
3.999767600E-1,-3.382999916E-3,8.476999588E-3,-5.542000011E-2,5.616654362E-2
4.049731460E-1,6.587000098E-3,5.514000077E-3,-5.064300075E-2,5.136639263E-2
4.099696830E-1,8.403999731E-3,2.794000087E-3,-4.587300122E-2,4.672008014E-2
4.149660700E-1,2.875000006E-3,7.478999905E-3,-4.349400103E-2,4.422588824E-2
4.199626210E-1,2.610000083E-3,2.071999945E-3,-3.872799873E-2,3.887110971E-2
4.249590080E-1,4.860000219E-3,-2.777999965E-3,-4.591500014E-2,4.625499026E-2
4.299553190E-1,6.928000133E-3,2.379999962E-3,-4.830300063E-2,4.885531144E-2
4.349518560E-1,1.110900007E-2,-7.699999696E-5,-4.831499979E-2,4.957575028E-2
4.399482420E-1,2.956999931E-3,-2.322999993E-3,-4.114300013E-2,4.131448459E-2
4.449447790E-1,2.830000012E-4,-2.000000095E-3,-3.874300048E-2,3.879562057E-2
4.499410890E-1,-2.160999924E-3,-4.108000081E-3,-4.831099883E-2,4.853347497E-2
4.549374810E-1,-4.277999979E-3,1.068999991E-3,-4.590199888E-2,4.611331202E-2
4.599340200E-1,3.359999973E-3,1.068800036E-2,-4.828700051E-2,4.956972231E-2
4.649303960E-1,3.163000103E-3,5.121999886E-3,-5.310200155E-2,5.344213713E-2
4.699269330E-1,6.990000256E-4,4.700000136E-5,-5.071799830E-2,5.072283668E-2
4.749233190E-1,-1.658999943E-3,4.978000186E-3,-4.113699868E-2,4.147029572E-2
4.799198610E-1,8.539999835E-4,9.460000321E-3,-3.874700144E-2,3.989424824E-2
4.849162480E-1,3.146999981E-3,1.115899999E-2,-4.595499858E-2,4.739502911E-2
4.899127840E-1,-4.323999863E-3,7.600000245E-4,-4.837900028E-2,4.857779578E-2
4.949090940E-1,-8.752999827E-3,-6.347999908E-3,-4.597600177E-2,4.723033821E-2
4.999054660E-1,-5.518999882E-3,-3.275000025E-3,-4.115400091E-2,4.165137183E-2
5.049020050E-1,2.218999900E-3,-2.873999998E-3,-4.113399982E-2,4.129394360E-2
5.098983150E-1,4.505000077E-3,2.281999914E-3,-5.309399962E-2,5.333362303E-2
5.148949230E-1,-2.969000023E-3,2.240000060E-3,-5.549700186E-2,5.562148664E-2
5.198913100E-1,-5.113000050E-3,-2.683999948E-3,-4.113100097E-2,4.153439377E-2
5.248876170E-1,-4.592000041E-3,4.848999903E-3,-4.111099988E-2,4.164989287E-2
5.298841540E-1,-1.719999942E-3,2.159999916E-3,-5.547900125E-2,5.554766943E-2
5.348805400E-1,9.229999851E-4,-5.047999788E-3,-5.068600178E-2,5.094511760E-2
5.398770920E-1,-1.557999989E-3,-2.073999960E-3,-5.067000166E-2,5.073635686E-2
5.448734780E-1,-3.827000037E-3,3.038000083E-3,-5.305000022E-2,5.327455206E-2
5.498700050E-1,-3.398000030E-3,5.349999992E-4,-4.586600140E-2,4.599481181E-2
5.548663150E-1,-7.270000060E-4,3.122000024E-3,-4.585599899E-2,4.596790246E-2
5.598626970E-1,6.606999785E-3,6.980000180E-4,-5.303600058E-2,5.345050989E-2
5.648592550E-1,6.033999845E-3,7.910000277E-4,-4.825399816E-2,4.863623314E-2
5.698556410E-1,3.214000026E-3,3.257999895E-3,-3.628899902E-2,3.657643790E-2
5.748521780E-1,5.406000186E-3,5.483000074E-3,-4.108700156E-2,4.180227057E-2
5.798485640E-1,2.626999980E-3,3.469999938E-4,-4.588900134E-2,4.596544334E-2
5.848451010E-1,2.490000101E-3,-6.730000023E-3,-5.067700148E-2,5.118253100E-2
5.898413970E-1,4.765999969E-3,-8.399000391E-3,-5.065700039E-2,5.156927042E-2
5.948377790E-1,4.554999992E-3,-4.520000075E-4,-3.866599873E-2,3.893599603E-2
5.998343420E-1,4.348000046E-3,1.991000026E-3,-3.866700083E-2,3.896159826E-2
6.048307280E-1,-7.340000011E-4,-4.579999950E-4,-4.106900096E-2,4.107811290E-2
6.098272550E-1,-6.960000028E-4,6.887000054E-3,-4.345700145E-2,4.400484247E-2
6.148235650E-1,1.842000056E-3,8.817999624E-3,-5.065200105E-2,5.144682004E-2
6.198201780E-1,-3.008000087E-3,3.418999957E-3,-4.588299990E-2,4.610842987E-2
6.248164880E-1,-2.659999998E-3,8.047999814E-3,-3.630499914E-2,3.728134740E-2
6.298128720E-1,2.327000024E-3,-4.503000062E-3,-4.110899940E-2,4.142030626E-2
6.348094380E-1,-1.840000041E-4,-6.390000228E-3,-4.588500038E-2,4.632816874E-2
6.398058240E-1,-2.472999971E-3,3.765000030E-3,-4.107600078E-2,4.132225543E-2
6.448023610E-1,-4.468000028E-3,5.956999958E-3,-4.107499868E-2,4.174451328E-2
6.497986660E-1,8.929999894E-4,-1.719999942E-3,-3.868599981E-2,3.873451213E-2
6.547952790E-1,3.289999906E-3,-8.639999665E-3,-3.867999837E-2,3.976953567E-2
6.597916030E-1,-1.701000030E-3,-2.994999988E-3,-4.583999887E-2,4.596921712E-2
6.647879870E-1,9.280000231E-4,2.287999960E-3,-5.060900003E-2,5.066919194E-2
6.697845240E-1,3.338000039E-3,-1.550000015E-4,-4.582199827E-2,4.594368068E-2
6.747808960E-1,7.459999761E-4,-2.504999982E-3,-4.342899844E-2,4.350757918E-2
6.797774330E-1,-1.625000034E-3,2.625999972E-3,-4.820600152E-2,4.830481429E-2
6.847738200E-1,-3.891000059E-3,7.329000160E-3,-5.059999973E-2,5.127586271E-2
6.897703560E-1,3.613000037E-3,2.060000086E-3,-5.061199889E-2,5.078259348E-2
6.947666660E-1,8.183999918E-3,6.821000017E-3,-4.582700133E-2,4.704910145E-2
6.997630480E-1,2.781999996E-3,1.115799975E-2,-5.063999817E-2,5.192927784E-2
7.047595870E-1,9.716999717E-3,7.699999842E-4,-5.305999890E-2,5.394790512E-2
7.097559780E-1,8.875999600E-3,8.570000064E-4,-4.828400165E-2,4.910053598E-2
7.147525150E-1,3.416999942E-3,8.107000031E-3,-3.871399909E-2,3.970104613E-2
7.197489020E-1,-1.587999985E-3,7.528000046E-3,-3.155500069E-2,3.247938727E-2
7.247452090E-1,-1.382000046E-3,-5.094999913E-3,-3.157100081E-2,3.200932740E-2
7.297417310E-1,3.488000017E-3,-1.184900012E-2,-3.873899952E-2,4.066048489E-2
7.347381170E-1,7.689999766E-4,3.647000063E-3,-4.589200020E-2,4.604310646E-2
7.397346540E-1,-1.601999975E-3,3.468000097E-3,-4.589800164E-2,4.605670400E-2
7.447310500E-1,-1.272000023E-3,-3.876999952E-3,-4.829100147E-2,4.846307807E-2
7.497273580E-1,-3.465000074E-3,-3.507999936E-3,-4.348700121E-2,4.376564364E-2
7.547238850E-1,-1.744700037E-2,6.391999777E-3,-4.586600140E-2,4.948682216E-2
7.597205000E-1,-1.564799994E-2,8.369999938E-3,-6.261000037E-2,6.507633170E-2
7.647168100E-1,2.921899967E-2,-6.432000082E-3,-5.301799998E-2,6.087716229E-2
7.697131990E-1,5.771299824E-2,-2.237600088E-2,2.032000106E-3,6.193225820E-2
7.747097360E-1,-5.610299855E-2,1.296999957E-2,9.176000021E-3,5.830923008E-2
7.797061220E-1,-1.691260040E-1,6.660000235E-2,-1.224830002E-1,2.191831446E-1
7.847024300E-1,6.476099789E-2,-8.279000409E-3,-1.726640016E-1,1.845951953E-1
7.896989430E-1,2.398069948E-1,-8.088999987E-2,2.602499910E-2,2.544167593E-1
7.946955580E-1,-1.162829995E-1,4.557399824E-2,4.745100066E-2,1.336051000E-1
7.996918780E-1,-5.363599956E-2,1.253600046E-2,-8.420900255E-2,1.006236944E-1
8.046882620E-1,7.260199636E-2,-1.464300044E-2,-2.910399996E-2,7.957707051E-2
8.096847990E-1,-1.158260033E-1,3.469000012E-2,-1.249290034E-1,1.738571685E-1
8.146811840E-1,1.076940000E-1,-3.959000111E-2,-3.385600075E-2,1.196310771E-1
8.196777210E-1,-2.347600088E-2,1.658399962E-2,-1.474099979E-2,3.230245711E-2
8.246741080E-1,3.385299817E-2,-1.611400023E-2,-2.912100032E-2,4.747335198E-2
8.296703960E-1,-9.692000225E-3,-3.779999970E-4,-6.024900079E-2,6.102474783E-2
8.346669330E-1,-3.051000088E-2,2.626799978E-2,-6.022800133E-2,7.244501439E-2
8.396633050E-1,3.676199913E-2,-3.078000061E-2,-5.306199938E-2,7.151523471E-2
8.446598420E-1,-8.153399825E-2,5.102600157E-2,-2.429999970E-2,9.920653049E-2
8.496562280E-1,1.409900039E-1,-6.100700051E-2,-1.235000044E-2,1.541186486E-1
8.546527500E-1,-1.199280024E-1,5.657999963E-2,-1.057529971E-1,1.696104905E-1
8.596490600E-1,9.878300130E-2,1.368399989E-2,9.188000113E-3,1.001486522E-1
8.646454420E-1,1.198299974E-2,-8.086899668E-2,-1.202550009E-1,1.454120083E-1
8.696419810E-1,-1.714610010E-1,1.419360042E-1,-2.736999886E-3,2.226032240E-1
8.746383670E-1,2.477480024E-1,-1.261489987E-1,2.825699933E-2,2.794478495E-1
8.796346750E-1,-1.754949987E-1,-7.926999591E-3,-1.632889956E-1,2.398429236E-1
8.846312880E-1,-6.977199763E-2,1.799599975E-1,3.090200014E-2,1.954703711E-1
8.896275980E-1,2.742649913E-1,-2.087280005E-1,-7.761000190E-3,3.447446835E-1
8.946241350E-1,-2.396429926E-1,-1.918000053E-3,-1.943289936E-1,3.085388150E-1
8.996205170E-1,-5.401999876E-2,2.525709867E-1,9.570500255E-2,2.754445700E-1
9.046170540E-1,3.315429986E-1,-2.213450074E-1,1.852600090E-2,3.990709021E-1
9.096134590E-1,-1.752479970E-1,-1.355729997E-1,-2.710410058E-1,3.500787420E-1
9.146099960E-1,-2.106070071E-1,3.462359905E-1,1.448899973E-2,4.055176984E-1
9.196066110E-1,3.174439967E-1,-2.778499946E-2,1.479579955E-1,3.513321301E-1
9.246026900E-1,6.858800352E-2,-3.584780097E-1,-1.947730035E-1,4.136995535E-1
9.295992270E-1,-3.421390057E-1,1.828899980E-1,-1.555739939E-1,4.179845908E-1
9.345956180E-1,3.431300074E-2,3.422450125E-1,1.747899950E-1,3.858245365E-1
9.395921550E-1,3.333890140E-1,-2.708170116E-1,1.107900031E-2,4.296659548E-1
9.445885410E-1,-8.238100260E-2,-3.195509911E-1,-2.903380096E-1,4.395402431E-1
9.495850820E-1,-3.147859871E-1,3.171420097E-1,-7.384300232E-2,4.529040307E-1
9.545814680E-1,9.009899944E-2,3.236880004E-1,2.154150009E-1,3.991182456E-1
9.595777760E-1,2.982600033E-1,-3.214240074E-1,-1.775199920E-2,4.388479869E-1
9.645743130E-1,-6.655299664E-2,-3.562290072E-1,-3.022379875E-1,4.718857998E-1
9.695707090E-1,-3.049049973E-1,2.861520052E-1,-9.282399714E-2,4.283296884E-1
9.745672460E-1,1.062299963E-2,4.173740149E-1,1.940910071E-1,4.604185438E-1
9.795636410E-1,3.090510070E-1,-1.900130063E-1,5.655999854E-2,3.671736659E-1
9.845601780E-1,7.027199864E-2,-4.755499959E-1,-2.522360086E-1,5.428710311E-1
9.895565600E-1,-2.828809917E-1,3.556400165E-2,-2.174730003E-1,3.585818728E-1
9.945528680E-1,-1.628150046E-1,5.141260028E-1,1.012360007E-1,5.487103063E-1
9.995494000E-1,2.097620070E-1,1.545380056E-1,2.030510008E-1,3.303207588E-1
1.004545786E0,2.475789934E-1,-4.595089853E-1,-8.252599835E-2,5.284452724E-1
1.009542323E0,-9.398800135E-2,-3.432649970E-1,-3.162879944E-1,4.761330675E-1
1.014538714E0,-2.964709997E-1,3.052670062E-1,-9.726499766E-2,4.365128618E-1
1.019535251E0,-5.107000098E-2,4.969899952E-1,1.823800057E-1,5.318549303E-1
1.024531637E0,2.691029906E-1,-3.101300076E-2,1.237220019E-1,2.978008723E-1
1.029528188E0,1.917610019E-1,-5.241559744E-1,-1.614899933E-1,5.810256322E-1
1.034524498E0,-1.475179940E-1,-2.606610060E-1,-2.967970073E-1,4.216564741E-1
1.039520899E0,-2.711060047E-1,3.901000023E-1,-4.920199886E-2,4.775953457E-1
1.044517438E0,-1.848999970E-2,4.812529981E-1,1.918610036E-1,5.184177591E-1
1.049513829E0,2.678039968E-1,-6.685400009E-2,1.020869985E-1,2.942960980E-1
1.054510366E0,1.905560046E-1,-5.209940076E-1,-1.614859998E-1,5.777751076E-1
1.059506752E0,-1.343619972E-1,-2.697390020E-1,-2.872200012E-1,4.163022995E-1
1.064503074E0,-2.710010111E-1,3.554350138E-1,-6.834600121E-2,4.521579071E-1
1.069499611E0,-4.465699941E-2,5.022360086E-1,1.775929928E-1,5.345788315E-1
1.074495992E0,2.389709949E-1,9.804000147E-3,1.308850050E-1,2.726428788E-1
1.079492529E0,2.143449932E-1,-5.058490038E-1,-1.304389983E-1,5.646603608E-1
1.084488915E0,-7.660300285E-2,-3.638589978E-1,-2.945800126E-1,4.743825188E-1
1.089485448E0,-2.756620049E-1,2.504509985E-1,-1.162000000E-1,3.901508473E-1
1.094481834E0,-1.277460009E-1,5.475869775E-1,1.348190010E-1,5.782272059E-1
1.099478351E0,1.675570011E-1,1.517100036E-1,1.622820050E-1,2.782565776E-1
1.104474661E0,2.447170019E-1,-4.334270060E-1,-6.816300005E-2,5.023858827E-1
1.109471038E0,1.134699956E-2,-4.559769928E-1,-2.900420129E-1,5.405258011E-1
1.114467577E0,-2.480179965E-1,9.692099690E-2,-1.929260045E-1,3.288267773E-1
1.119463963E0,-1.837300062E-1,5.437610149E-1,7.287500054E-2,5.785702397E-1
1.124460500E0,1.019179970E-1,3.084990084E-1,1.961430013E-1,3.795141542E-1
1.129456886E0,2.706620097E-1,-2.945249975E-1,1.568100043E-2,4.003108685E-1
1.134453409E0,1.093309969E-1,-5.232160091E-1,-2.401410043E-1,5.859829017E-1
1.139449719E0,-1.871760041E-1,-1.132709980E-1,-2.555490136E-1,3.364081953E-1
1.144446101E0,-2.452310026E-1,4.670409858E-1,-3.549000015E-3,5.275207318E-1
1.149442611E0,-4.573000129E-3,4.679439962E-1,1.989610046E-1,5.085056315E-1
1.154438997E0,2.565940022E-1,-9.100300074E-2,9.723900259E-2,2.890976509E-1
1.159435529E0,1.946499944E-1,-5.191410184E-1,-1.638679951E-1,5.781424886E-1
1.164431839E0,-9.939499944E-2,-3.015469909E-1,-2.991940081E-1,4.362648371E-1
1.169428216E0,-2.653090060E-1,3.073320091E-1,-1.018109992E-1,4.185777252E-1
1.174424755E0,-9.918600321E-2,5.491610169E-1,1.466410011E-1,5.769915675E-1
1.179421141E0,1.985709965E-1,1.292389929E-1,1.597239971E-1,2.857357402E-1
1.184417669E0,2.635369897E-1,-4.491010010E-1,-6.831199676E-2,5.251761447E-1
1.189414055E0,1.647399925E-2,-4.655149877E-1,-2.829959989E-1,5.450342483E-1
1.194410592E0,-2.458530068E-1,8.338099718E-2,-1.954469979E-1,3.249547978E-1
1.199406983E0,-1.913329959E-1,5.314069986E-1,6.080599874E-2,5.680660903E-1
1.204403290E0,9.499800205E-2,3.235169947E-1,2.008710057E-1,3.924755116E-1
1.209399818E0,2.714090049E-1,-2.662949860E-1,3.475200012E-2,3.818161456E-1
1.214396204E0,1.172100008E-1,-5.260999799E-1,-2.307099998E-1,5.862989656E-1
1.219392741E0,-1.823869944E-1,-1.469949931E-1,-2.700709999E-1,3.575064876E-1
1.224389127E0,-2.551980019E-1,4.411210120E-1,-3.234399855E-2,5.106465525E-1
1.229385654E0,-1.827099919E-2,4.752379954E-1,1.869969964E-1,5.110311716E-1
1.234382041E0,2.464690059E-1,-7.236699760E-2,1.116060019E-1,2.800711568E-1
1.239378348E0,2.045470029E-1,-5.260679722E-1,-1.495289952E-1,5.839057357E-1
1.244374967E0,-9.024599940E-2,-3.103730083E-1,-3.016029894E-1,4.420860865E-1
1.249371276E0,-2.786189914E-1,2.992979884E-1,-1.089909971E-1,4.231865613E-1
1.254367798E0,-1.161110029E-1,5.442209840E-1,1.466709971E-1,5.754742616E-1
1.259364184E0,1.902569979E-1,1.295000017E-1,1.693560034E-1,2.857436466E-1
1.264360721E0,2.582190037E-1,-4.394060075E-1,-6.585700065E-2,5.138986650E-1
1.269357022E0,6.825000048E-3,-4.423030019E-1,-2.877340019E-1,5.277019821E-1
1.274353635E0,-2.616269886E-1,1.166710034E-1,-1.810760051E-1,3.388942665E-1
1.279349940E0,-1.816309988E-1,5.475029945E-1,8.228799701E-2,5.826840166E-1
1.284346324E0,1.254609972E-1,2.831130028E-1,1.935849935E-1,3.651966373E-1
1.289342846E0,2.801580131E-1,-3.249570131E-1,1.187999966E-3,4.290535911E-1
1.294339232E0,8.199000359E-2,-5.077819824E-1,-2.617419958E-1,5.771254411E-1
1.299335530E0,-2.217019945E-1,-5.342499912E-2,-2.484139949E-1,3.372173154E-1
1.304332067E0,-2.312750071E-1,4.928889871E-1,2.019900084E-2,5.448262862E-1
1.309328443E0,4.651499912E-2,3.934530020E-1,2.010940015E-1,4.443058714E-1
1.314324980E0,2.795619965E-1,-1.999430060E-1,6.119300053E-2,3.491084342E-1
1.319321366E0,1.511240005E-1,-5.252469778E-1,-2.068420053E-1,5.843855460E-1
1.324317913E0,-1.655929983E-1,-1.824119985E-1,-2.797929943E-1,3.727992730E-1
1.329314299E0,-2.565140128E-1,4.231069982E-1,-3.240700066E-2,4.958519783E-1
1.334310626E0,-1.239500009E-2,4.515860081E-1,1.989540011E-1,4.936256205E-1
1.339307163E0,2.877489924E-1,-1.491930038E-1,8.051200211E-2,3.339763727E-1
1.344303549E0,8.910200000E-2,-4.119459987E-1,-2.116059959E-1,4.716097642E-1
1.349300173E0,-3.113299906E-1,1.223009974E-1,-1.674930006E-1,3.740826142E-1
1.354296482E0,8.175300062E-2,1.673319936E-1,1.079270020E-1,2.152481985E-1
1.359293014E0,1.398860067E-1,-1.175350025E-1,-6.021999940E-2,1.923772856E-1
1.364289400E0,-1.356099993E-1,4.586799815E-2,-8.882500231E-2,1.684750017E-1
1.369285951E0,5.579699948E-2,1.461999957E-3,-4.087299854E-2,6.918124460E-2
1.374282261E0,8.110000053E-4,-1.290300023E-2,-3.615999967E-2,3.840170194E-2
1.379278643E0,-7.111400366E-2,3.848699853E-2,-6.006800011E-2,1.007304086E-1
1.384275197E0,9.563200176E-2,-3.397800028E-2,-3.133099899E-2,1.062149507E-1
1.389271583E0,-7.105000317E-2,3.368299827E-2,-7.433000021E-3,7.898035713E-2
1.394268129E0,-1.662099920E-2,2.097999910E-3,-1.151579991E-1,1.163702023E-1
1.399264515E0,1.548739970E-1,-4.074599966E-2,2.373600006E-2,1.618937588E-1
1.404260819E0,-1.557600051E-1,5.835400149E-2,-3.144000098E-2,1.692774124E-1
1.409257356E0,-2.436999977E-2,1.741600037E-2,-1.151710004E-1,1.190024087E-1
1.414253742E0,1.913239956E-1,-5.778099969E-2,-1.699700020E-2,2.005801915E-1
1.419250283E0,-2.459399961E-2,2.308999887E-3,4.513800144E-2,5.145517925E-2
1.424246669E0,-1.739909947E-1,6.165200099E-2,-6.498999894E-2,1.956975611E-1
1.429243211E0,-5.127999932E-3,2.050000057E-2,-1.343369931E-1,1.359888750E-1
1.434239597E0,1.449269950E-1,-3.816499934E-2,-6.491500139E-2,1.633228657E-1
1.439235920E0,6.801799685E-2,-2.979199961E-2,2.597800083E-2,7.866935657E-2
1.444232534E0,-7.501000166E-2,8.302999660E-3,2.355000004E-2,7.905721127E-2
1.449229072E0,-9.339399636E-2,2.867599949E-2,-6.259299815E-2,1.160285953E-1
1.454225382E0,5.640000105E-3,1.440900005E-2,-1.247859970E-1,1.257416953E-1
1.459221766E0,6.823799759E-2,-5.441000219E-3,-9.367699921E-2,1.160233122E-1
1.464218303E0,3.689400107E-2,-6.994999945E-3,-7.540000137E-3,3.830076946E-2
1.469214703E0,-2.088199928E-2,-1.779000042E-3,2.355499938E-2,3.152872866E-2
1.474211011E0,-3.836600110E-2,7.588000037E-3,-1.712699980E-2,4.269498691E-2
1.479207529E0,-1.171300001E-2,6.994999945E-3,-7.216800004E-2,7.344620224E-2
1.484204144E0,1.762899943E-2,-3.760000109E-4,-7.695200294E-2,7.894639798E-2
1.489200463E0,1.613700017E-2,-2.414999995E-3,-3.626500070E-2,3.976663520E-2
1.494196847E0,7.759999717E-4,1.909999992E-4,-1.233300008E-2,1.235886515E-2
1.499193408E0,-8.406000212E-3,1.200000042E-5,-2.669700049E-2,2.798911965E-2
1.504189718E0,-1.220299955E-2,7.172999904E-3,-5.301700160E-2,5.487410668E-2
1.509186105E0,-1.355300006E-2,4.315000027E-3,-5.780300125E-2,5.952722058E-2
1.514182644E0,-1.009599958E-2,4.213999957E-3,-3.384599835E-2,3.557019268E-2
1.519179030E0,-2.285999944E-3,4.058999941E-3,-2.187200077E-2,2.236259587E-2
1.524175577E0,5.044000223E-3,1.180000021E-3,-5.061500147E-2,5.087939379E-2
1.529171963E0,4.807999823E-3,3.517000005E-3,-7.456199825E-2,7.479958378E-2
1.534168500E0,-2.453000052E-3,5.820000079E-3,-6.738200039E-2,6.767734914E-2
1.539164810E0,-2.016999992E-3,5.615000147E-3,-3.625699878E-2,3.674461152E-2
1.544161423E0,6.259999936E-4,4.539999936E-4,-1.232399978E-2,1.234823722E-2
1.549157814E0,5.195999984E-3,2.749999985E-3,-2.669600025E-2,2.733564239E-2
1.554154350E0,7.000000216E-3,7.282000035E-3,-5.544200167E-2,5.635461895E-2
1.559150646E0,4.106999841E-3,1.160399988E-2,-6.025400013E-2,6.149849423E-2
1.564147028E0,-7.999000140E-3,3.593999892E-3,-3.873199970E-2,3.971232351E-2
1.569143543E0,-4.629999865E-3,-8.569999598E-3,-1.957000047E-2,2.186016263E-2
1.574139853E0,7.120000082E-4,-7.876999676E-3,-2.432800084E-2,2.558135440E-2
1.579136471E0,-1.790000009E-3,2.347999951E-3,-4.825200140E-2,4.834224698E-2
1.584132858E0,7.430000114E-4,6.972000003E-3,-6.022699922E-2,6.063375519E-2
1.589129165E0,3.076999914E-3,-5.310000270E-4,-4.826499894E-2,4.836589720E-2
1.594125702E0,5.119999987E-4,-5.030000117E-3,-3.628800064E-2,3.663853212E-2
1.599122088E0,2.934999997E-3,-6.881999783E-3,-3.866500035E-2,3.938220916E-2
1.604118634E0,7.548000198E-3,-1.490999945E-3,-4.822799936E-2,4.883784711E-2
1.609115020E0,-1.889999985E-4,-1.221999992E-3,-4.822700098E-2,4.824285054E-2
1.614111328E0,2.313999925E-3,-8.730000118E-4,-3.624400124E-2,3.632828582E-2
1.619107875E0,2.191999927E-3,1.704000053E-3,-2.905900031E-2,2.919133397E-2
1.624104261E0,-4.269999918E-4,3.938000184E-3,-3.145999834E-2,3.170838485E-2
1.629100793E0,6.756999996E-3,1.198000042E-3,-4.104699939E-2,4.161668430E-2
1.634097179E0,6.260000169E-3,1.216999954E-3,-5.063299835E-2,5.103302081E-2
1.639093725E0,1.130999997E-3,1.261000056E-3,-3.866399825E-2,3.870108581E-2
1.644090035E0,1.214000047E-3,3.663999960E-3,-3.387400135E-2,3.409320547E-2
1.649086408E0,1.180000021E-3,3.453999991E-3,-3.866999969E-2,3.884187678E-2
1.654083024E0,5.942999851E-3,5.669000093E-3,-4.107100144E-2,4.188417325E-2
1.659079333E0,1.040900033E-2,7.697999943E-3,-4.348000139E-2,4.536647454E-2
1.664075914E0,7.207000162E-3,-1.599999996E-5,-4.351000115E-2,4.410284920E-2
1.669072300E0,6.674000062E-3,-2.280999906E-3,-3.154399991E-2,3.232288922E-2
1.674068822E0,3.773000091E-3,2.799999900E-3,-3.393600136E-2,3.425970983E-2
1.679065208E0,-1.265999977E-3,2.680000034E-4,-3.633999825E-2,3.636303140E-2
1.684061745E0,-5.977000110E-3,2.749999985E-3,-3.872900084E-2,3.928387119E-2
1.689058113E0,-7.009999827E-4,5.022999831E-3,-4.590800032E-2,4.618729719E-2
1.694054420E0,6.529000122E-3,-6.299999950E-5,-3.633999825E-2,3.692190791E-2
1.699050943E0,1.154000056E-3,-2.344999928E-3,-3.155799955E-2,3.166603980E-2
1.704047329E0,1.123999944E-3,3.450000077E-4,-4.351900145E-2,4.353488128E-2
1.709043866E0,5.900999997E-3,-2.054000041E-3,-4.591500014E-2,4.633819111E-2
1.714040252E0,3.089000005E-3,6.500000018E-4,-4.112299904E-2,4.124397497E-2
1.719036794E0,4.070000141E-4,3.109999932E-3,-3.633699939E-2,3.647211638E-2
1.724033181E0,4.469999985E-4,5.579999997E-4,-4.352400079E-2,4.352987271E-2
1.729029717E0,5.980000133E-4,7.420000038E-4,-4.590800032E-2,4.591789043E-2
1.734026017E0,3.025999991E-3,-1.579000033E-3,-3.872299939E-2,3.887313467E-2
1.739022399E0,-2.050000010E-3,3.461000044E-3,-3.632799909E-2,3.655002789E-2
1.744018933E0,-4.193000030E-3,3.273000009E-3,-3.393499926E-2,3.434935156E-2
1.749015320E0,-3.868000116E-3,3.096000059E-3,-3.632999957E-2,3.666627210E-2
1.754011627E0,-3.567999927E-3,2.836999949E-3,-3.872700036E-2,3.899435534E-2
1.759008251E0,1.601999975E-3,-2.182000084E-3,-3.872900084E-2,3.882348560E-2
1.764004789E0,8.724999614E-3,-1.983999973E-3,-3.872299939E-2,3.974333348E-2
1.769001094E0,1.044899970E-2,-1.801999984E-3,-3.393999860E-2,3.555773198E-2
1.773997478E0,2.438999945E-3,-1.122399978E-2,-4.113100097E-2,4.270463830E-2
1.778994015E0,4.809000064E-3,-5.351000000E-3,-4.109599814E-2,4.172098687E-2
1.783990407E0,6.872000173E-3,2.411999973E-3,-3.869000077E-2,3.936950965E-2
1.788986943E0,-8.210000233E-4,4.714999814E-3,-4.588500038E-2,4.613391945E-2
1.793983330E0,-3.161000088E-3,6.734999828E-3,-4.349999875E-2,4.413164438E-2
1.798979861E0,-1.009199955E-2,1.600999967E-3,-4.589999840E-2,4.702362713E-2
1.803976171E0,-1.153100003E-2,-7.873999886E-3,-4.348900169E-2,4.567556353E-2
1.808972553E0,4.009000026E-3,-7.069000043E-3,-3.865600005E-2,3.950100230E-2
1.813969092E0,-1.044000033E-3,-1.557999989E-3,-3.863999993E-2,3.868548687E-2
1.818965484E0,-8.058000356E-3,8.267000318E-3,-3.862800077E-2,4.031621395E-2
1.823962020E0,-7.286999840E-3,9.963000193E-3,-4.582099989E-2,4.745445996E-2
1.828958426E0,-4.180999938E-3,1.957000000E-3,-5.062299967E-2,5.083304737E-2
1.833954962E0,1.062000054E-3,4.329999909E-3,-4.343499988E-2,4.366321058E-2
1.838951267E0,1.057000016E-3,8.875000291E-3,-4.104800150E-2,4.200977632E-2
1.843947649E0,-1.347000012E-3,9.490000084E-4,-4.585999995E-2,4.588959148E-2
1.848944173E0,-3.640000010E-3,-1.495999983E-3,-4.825399816E-2,4.841421232E-2
1.853940560E0,-8.023000322E-3,5.954999942E-3,-4.345100001E-2,4.458497460E-2
1.858937096E0,-4.852999933E-3,7.830000250E-4,-3.866099939E-2,3.897226669E-2
1.863933511E0,2.825000091E-3,3.224000102E-3,-3.625699878E-2,3.650951605E-2
1.868930047E0,2.554999897E-3,6.629999843E-4,-4.344899952E-2,4.352910696E-2
1.873926348E0,2.422000049E-3,-6.448000204E-3,-4.584499821E-2,4.635953679E-2
1.878922730E0,-9.000000136E-5,-9.720000089E-4,-3.863999993E-2,3.865232824E-2
1.883919269E0,-2.396000084E-3,1.619999995E-3,-3.863399848E-2,3.874210959E-2
1.888915661E0,5.071000196E-3,-3.192000091E-3,-4.581400007E-2,4.620418282E-2
1.893912197E0,4.728000145E-3,-5.179000087E-3,-4.820000008E-2,4.870745359E-2
1.898908593E0,4.414999858E-3,1.939999929E-4,-4.579100013E-2,4.600375585E-2
1.903905129E0,6.519999821E-3,7.495000027E-3,-4.100700095E-2,4.219312207E-2
1.908901449E0,3.752999939E-3,4.474999849E-3,-4.103000090E-2,4.144359547E-2
1.913897831E0,1.015000045E-3,6.502999924E-3,-4.104699939E-2,4.157132897E-2
1.918894370E0,3.297999967E-3,5.963999778E-3,-3.867100179E-2,3.926693872E-2
1.923890757E0,6.970000104E-4,7.810000097E-4,-4.347600043E-2,4.348860061E-2
1.928887293E0,3.116999986E-3,3.131000092E-3,-4.347800091E-2,4.370189256E-2
1.933883680E0,7.724000141E-3,-1.796999946E-3,-4.109000042E-2,4.184826784E-2
1.938880216E0,9.537000209E-3,-3.914999776E-3,-4.348300025E-2,4.468839790E-2
1.943876526E0,-8.759999764E-4,1.336000045E-3,-4.587800056E-2,4.590580799E-2
1.948872908E0,-5.501000211E-3,6.144000217E-3,-4.826899990E-2,4.896841935E-2
1.953869524E0,4.639999941E-3,3.362999996E-3,-4.587899894E-2,4.623550488E-2
1.958865834E0,4.329999909E-3,-3.973000217E-3,-4.349299893E-2,4.388820554E-2
1.963862370E0,1.645999961E-3,-3.502999898E-3,-4.348300025E-2,4.365491536E-2
1.968858742E0,1.483000000E-3,4.004999995E-3,-4.826400056E-2,4.845258574E-2
1.973855278E0,1.342999982E-3,6.196000148E-3,-4.827199876E-2,4.868654775E-2
1.978851588E0,-1.077000052E-3,1.017999952E-3,-4.110300168E-2,4.112970946E-2
1.983847961E0,3.885000013E-3,1.051999978E-3,-3.631100059E-2,3.653339147E-2
1.988844577E0,6.022000220E-3,9.670000290E-4,-3.631699830E-2,3.682558813E-2
1.993840872E0,-8.887999691E-3,5.677000154E-3,-3.632799909E-2,3.782787843E-2
1.998837408E0,-2.730800025E-2,1.487500034E-2,-5.069199950E-2,5.946991950E-2
2.003833795E0,-1.757399924E-2,1.374099962E-2,-6.026300043E-2,6.425954980E-2
2.008830107E0,2.277399972E-2,-6.424000021E-3,-4.829100147E-2,5.377679483E-2
2.013826721E0,6.649799645E-2,-2.248799987E-2,-1.717199944E-2,7.226735940E-2
2.018823249E0,-2.253999934E-3,-6.124999840E-3,2.109199949E-2,2.207869066E-2
2.023819636E0,-1.683119982E-1,5.410800129E-2,-4.833900183E-2,1.832846520E-1
2.028815944E0,-6.452000141E-2,3.990000114E-2,-1.727360040E-1,1.886599262E-1
2.033812495E0,2.563849986E-1,-7.772199810E-2,-5.537699908E-2,2.735700797E-1
2.038808882E0,3.070300072E-2,-1.079799980E-2,9.291300178E-2,9.844844820E-2
2.043805418E0,-1.876810044E-1,5.182600021E-2,-5.077200010E-2,2.012160275E-1
2.048801820E0,1.108499989E-1,-3.649099916E-2,-5.065400153E-2,1.272208440E-1
2.053798127E0,-7.648400217E-2,4.819700122E-2,-6.987100095E-2,1.142572111E-1
2.058794717E0,4.775800183E-2,-2.259000018E-2,-8.423999697E-2,9.943596903E-2
2.063791027E0,1.504900027E-2,1.244000043E-3,1.392600033E-2,2.054150507E-2
2.068787572E0,-4.962999839E-3,-1.585100032E-2,-2.440500073E-2,2.952100336E-2
2.073783959E0,-1.624399982E-2,4.528999794E-3,-3.393299878E-2,3.789231816E-2
2.078780505E0,1.623900048E-2,-7.726000156E-3,-5.307300016E-2,5.603694818E-2
2.083776892E0,-6.597999949E-3,7.555999793E-3,-6.503800303E-2,6.580705566E-2
2.088773414E0,1.531600021E-2,1.208900008E-2,1.998000080E-3,1.961417318E-2
2.093769724E0,3.579400107E-2,-5.118599907E-2,-7.227099687E-2,9.552127513E-2
2.098766107E0,-9.437400103E-2,7.531999797E-2,-2.190699987E-2,1.227170355E-1
2.103762640E0,1.654759943E-1,-8.179199696E-2,-5.548600107E-2,1.927457698E-1
2.108759255E0,-1.861249954E-1,7.144399732E-2,-1.105490029E-1,2.279645602E-1
2.113755565E0,1.170130000E-1,-1.082499977E-2,5.472499877E-2,1.296304296E-1
2.118751950E0,4.289900139E-2,-1.058010012E-1,-8.426500112E-2,1.418970281E-1
2.123748486E0,-2.174759954E-1,1.691019982E-1,-3.376799822E-2,2.775456216E-1
2.128744897E0,2.632220089E-1,-9.887000173E-2,4.510299861E-2,2.847725122E-1
2.133741205E0,-7.700999826E-2,-8.826799691E-2,-1.776549965E-1,2.127982070E-1
2.138737818E0,-1.950770020E-1,2.359320074E-1,-7.313999813E-3,3.062228657E-1
2.143734356E0,3.079839945E-1,-1.383450031E-1,9.290800244E-2,3.501790651E-1
2.148730661E0,-7.909200341E-2,-1.820210069E-1,-1.968490034E-1,2.795294656E-1
2.153727046E0,-2.619000077E-1,2.938520014E-1,-2.146900073E-2,3.942100085E-1
2.158723582E0,2.870000005E-1,3.213000018E-3,1.313470006E-1,3.156443540E-1
2.163719983E0,1.029369980E-1,-3.156889975E-1,-1.826909930E-1,3.789875560E-1
2.168716519E0,-3.370200098E-1,1.884880066E-1,-1.436479986E-1,4.120011688E-1
2.173712829E0,6.048500165E-2,2.732250094E-1,1.795150042E-1,3.324695143E-1
2.178709227E0,3.167630136E-1,-3.078039885E-1,-1.039899979E-2,4.418033967E-1
2.183705842E0,-1.647499949E-1,-2.122350037E-1,-2.901409864E-1,3.954340016E-1
2.188702171E0,-2.799859941E-1,3.768439889E-1,-1.637499966E-2,4.697570537E-1
2.193698707E0,2.105869949E-1,1.606100053E-1,2.104550004E-1,3.382805986E-1
2.198695104E0,2.508479953E-1,-4.349200130E-1,-9.430100024E-2,5.108549824E-1
2.203691640E0,-2.228949964E-1,-1.652950048E-1,-2.945890129E-1,4.047064424E-1
2.208687945E0,-2.419089973E-1,4.484300017E-1,1.984200068E-2,5.099050249E-1
2.213684558E0,2.093700022E-1,2.068440020E-1,2.272569984E-1,3.718413402E-1
2.218680868E0,2.663879991E-1,-4.331679940E-1,-7.282000035E-2,5.137118156E-1
2.223677248E0,-1.557949930E-1,-2.786439955E-1,-3.138459921E-1,4.476760691E-1
2.228673784E0,-2.954809964E-1,3.905270100E-1,-4.465699941E-2,4.917464919E-1
2.233670156E0,7.411800325E-2,3.811950088E-1,2.251970023E-1,4.489062296E-1
2.238666692E0,3.194069862E-1,-2.686260045E-1,2.541900054E-2,4.181230426E-1
2.243663079E0,3.193800151E-2,-4.636569917E-1,-2.712120116E-1,5.381020323E-1
2.248659629E0,-3.010849953E-1,1.017350033E-1,-1.885129958E-1,3.695122933E-1
2.253656016E0,-1.341519952E-1,5.338690281E-1,1.228419989E-1,5.640062532E-1
2.258652319E0,2.407339960E-1,1.272599995E-1,1.910479963E-1,3.326368909E-1
2.263648855E0,2.399310023E-1,-4.845860004E-1,-1.040859967E-1,5.506581266E-1
2.268645242E0,-1.058830023E-1,-3.422090113E-1,-3.114210069E-1,4.746590999E-1
2.273641778E0,-2.929669917E-1,3.277570009E-1,-8.040700108E-2,4.468999840E-1
2.278638165E0,-4.314199835E-2,5.128549933E-1,1.967660040E-1,5.509975831E-1
2.283634706E0,2.859210074E-1,-4.029300064E-2,1.332660019E-1,3.180159990E-1
2.288631093E0,1.951970011E-1,-5.325719714E-1,-1.591199934E-1,5.891128468E-1
2.293627630E0,-1.564559937E-1,-2.563920021E-1,-2.943960130E-1,4.205762109E-1
2.298623929E0,-2.744829953E-1,4.011690021E-1,-4.201599956E-2,4.878963283E-1
2.303620312E0,-1.431899983E-2,4.938769937E-1,2.038030028E-1,5.344671950E-1
2.308616850E0,2.765049934E-1,-7.681600004E-2,1.044119969E-1,3.053810314E-1
2.313613160E0,1.745820045E-1,-5.229359865E-1,-1.782950014E-1,5.794221517E-1
2.318609754E0,-1.585330069E-1,-2.355840057E-1,-3.063870072E-1,4.177385980E-1
2.323606141E0,-2.740519941E-1,3.962669969E-1,-5.167699978E-2,4.845642791E-1
2.328602678E0,-2.835999988E-2,4.892849922E-1,2.061299980E-1,5.316894481E-1
2.333598982E0,2.587420046E-1,-6.904699653E-2,1.139649972E-1,2.910376836E-1
2.338595365E0,1.870560050E-1,-5.420830250E-1,-1.687410027E-1,5.977603876E-1
2.343591922E0,-1.351629943E-1,-2.842760086E-1,-3.039959967E-1,4.376019311E-1
2.348588309E0,-2.813720107E-1,3.662059903E-1,-7.310199738E-2,4.675691797E-1
2.353584845E0,-5.891000107E-2,5.168700218E-1,1.799989939E-1,5.504767438E-1
2.358581218E0,2.426680028E-1,-5.621999968E-3,1.356669962E-1,2.780735521E-1
2.363577755E0,2.129420042E-1,-5.200899839E-1,-1.376039982E-1,5.785954968E-1
2.368574059E0,-9.224899858E-2,-3.410190046E-1,-3.112820089E-1,4.708506433E-1
2.373570442E0,-2.756380141E-1,2.977260053E-1,-9.703300148E-2,4.171720178E-1
2.378566965E0,-8.230400085E-2,5.476670265E-1,1.658259928E-1,5.781101801E-1
2.383563352E0,2.308550030E-1,8.001600206E-2,1.573369950E-1,2.906054421E-1
2.388559888E0,2.404360026E-1,-4.942809939E-1,-9.935899824E-2,5.585654687E-1
2.393556247E0,-5.025000125E-2,-3.964889944E-1,-2.994939983E-1,4.994249096E-1
2.398552784E0,-2.803539932E-1,2.207079977E-1,-1.258469969E-1,3.783488448E-1
2.403549083E0,-1.343909949E-1,5.682039857E-1,1.492010057E-1,6.026422230E-1
2.408545466E0,1.878789961E-1,1.730149984E-1,1.909829974E-1,3.189156819E-1
2.413542072E0,2.633300126E-1,-4.402759969E-1,-5.869200081E-2,5.163626632E-1
2.418538382E0,4.321999848E-3,-4.551129937E-1,-2.901560068E-1,5.397564497E-1
2.423534918E0,-2.568280101E-1,1.169679984E-1,-1.738840044E-1,3.314781839E-1
2.428531310E0,-1.703040004E-1,5.597320199E-1,9.186299890E-2,5.922349173E-1
2.433527847E0,1.334079951E-1,2.752760053E-1,1.983239949E-1,3.645640947E-1
2.438524171E0,2.755739987E-1,-3.584710062E-1,-8.426000364E-3,4.522316757E-1
2.443520785E0,6.353499740E-2,-5.097650290E-1,-2.616829872E-1,5.765197884E-1
2.448517171E0,-2.433259934E-1,-1.942400075E-2,-2.147960067E-1,3.251494354E-1
2.453513488E0,-2.271700054E-1,5.236989856E-1,4.894699901E-2,5.729420979E-1
2.458510025E0,6.464000046E-2,3.833760023E-1,2.082110047E-1,4.410298304E-1
2.463506411E0,2.769989967E-1,-2.332109958E-1,4.437299818E-2,3.648078614E-1
2.468502938E0,1.271139979E-1,-5.390700102E-1,-2.211930007E-1,5.963897953E-1
2.473499324E0,-1.851110011E-1,-1.614159942E-1,-2.677299976E-1,3.633188098E-1
2.478495628E0,-2.527950108E-1,4.494929910E-1,-1.558999997E-2,5.159382856E-1
2.483492164E0,-9.053999558E-3,4.734329879E-1,2.013390064E-1,5.145465620E-1
2.488488770E0,2.547819912E-1,-8.607800305E-2,9.960599989E-2,2.867832647E-1
2.493485156E0,1.906040013E-1,-5.409780145E-1,-1.615090072E-1,5.958793979E-1
2.498481464E0,-1.077729985E-1,-3.143369853E-1,-2.847929895E-1,4.376411846E-1
2.503478001E0,-2.682999969E-1,3.171289861E-1,-8.017600328E-2,4.230648575E-1
2.508474387E0,-9.252300113E-2,5.533180237E-1,1.562670022E-1,5.823578943E-1
2.513470724E0,1.949699968E-1,1.234840006E-1,1.597409993E-1,2.806755866E-1
2.518467337E0,2.457740009E-1,-4.495860040E-1,-7.306399941E-2,5.175623465E-1
2.523463876E0,5.018000025E-3,-4.610370100E-1,-2.829239964E-1,5.409494363E-1
2.528460266E0,-2.489130050E-1,8.028399944E-2,-1.809979975E-1,3.180620690E-1
2.533456574E0,-2.012510002E-1,5.453050137E-1,7.287599891E-2,5.858075061E-1
2.538453087E0,7.401599735E-2,3.648790121E-1,2.009419948E-1,4.230753439E-1
2.543449702E0,2.665390074E-1,-2.356880009E-1,5.630199984E-2,3.602246402E-1
2.548446012E0,1.486759931E-1,-5.508599877E-1,-1.924930066E-1,6.021667830E-1
2.553442420E0,-1.319060028E-1,-2.321520001E-1,-2.653749883E-1,3.764540199E-1
2.558438957E0,-2.520470023E-1,3.752650023E-1,-5.857700109E-2,4.558319628E-1
2.563435348E0,-8.961600065E-2,5.490959883E-1,1.585309952E-1,5.785062734E-1
2.568431656E0,1.809729934E-1,1.149410009E-1,1.620340049E-1,2.687334679E-1
2.573428270E0,2.522110045E-1,-4.382550120E-1,-4.917899892E-2,5.080319087E-1
2.578424579E0,4.204300046E-2,-4.963139892E-1,-2.662769854E-1,5.647996306E-1
2.583421116E0,-2.342019975E-1,1.205100026E-2,-2.145880014E-1,3.178738941E-1
2.588417517E0,-2.260199934E-1,5.239170194E-1,5.384499952E-2,5.731259587E-1
2.593414054E0,1.614409983E-1,2.376420051E-1,2.059179991E-1,3.534673123E-1
2.598410449E0,2.534930110E-1,-3.499880135E-1,-6.066799909E-2,4.363839162E-1
2.603406986E0,-2.301480025E-1,-3.745999932E-2,-2.061370015E-1,3.112295262E-1
2.608403296E0,-1.658299938E-2,1.554220021E-1,5.046299845E-2,1.642483145E-1
2.613399693E0,1.311530024E-1,-6.621699780E-2,-3.372799978E-2,1.507427570E-1
2.618396232E0,-8.603599668E-2,1.847399957E-2,-5.527799949E-2,1.039189040E-1
2.623392618E0,5.257999990E-3,7.468999829E-3,-3.604999930E-2,3.718917815E-2
2.628389164E0,5.047800019E-2,-2.179099992E-2,-3.367700055E-2,6.447492960E-2
2.633385550E0,-7.141199708E-2,4.472300038E-2,-4.087400064E-2,9.365096912E-2
2.638382073E0,5.972399935E-2,-1.895499974E-2,-6.961800158E-2,9.366383645E-2
2.643378460E0,4.469700158E-2,6.930000149E-3,3.330399841E-2,5.616941483E-2
2.648374991E0,-1.362899989E-1,5.883000046E-2,-9.606499970E-2,1.768174678E-1
2.653371378E0,1.634649932E-1,-5.122299865E-2,-4.573300108E-2,1.773023040E-1
2.658367914E0,9.999999776E-3,-5.867000204E-3,4.036900029E-2,4.200092703E-2
2.663364243E0,-1.876180023E-1,6.386499852E-2,-7.216800004E-2,2.109205373E-1
2.668360625E0,5.207499862E-2,-3.796000034E-3,-1.151589975E-1,1.264429112E-1
2.673357169E0,1.726710051E-1,-4.602999985E-2,4.509999882E-3,1.787578725E-1
2.678353556E0,-2.967599966E-2,1.059400011E-2,4.748800024E-2,5.699129724E-2
2.683350092E0,-1.574150026E-1,5.246999860E-2,-3.393200040E-2,1.693634094E-1
2.688346488E0,-4.076400027E-2,2.161799930E-2,-1.224410012E-1,1.308466293E-1
2.693343024E0,1.027799994E-1,-2.759799920E-2,-9.606599808E-2,1.433668505E-1
2.698339349E0,8.760999888E-2,-3.191699833E-2,2.050000010E-3,9.326526248E-2
2.703335731E0,-2.521700040E-2,-5.229000002E-3,4.990199953E-2,5.615557949E-2
2.708332250E0,-7.880900055E-2,1.404399984E-2,-3.490000090E-4,8.005132291E-2
2.713328637E0,-2.488500066E-2,1.514399983E-2,-8.648499846E-2,9.125929513E-2
2.718325173E0,3.934599832E-2,-1.809999958E-4,-1.032430008E-1,1.104864587E-1
2.723321560E0,4.121800140E-2,-6.850000005E-3,-4.341800138E-2,6.025752221E-2
2.728318096E0,7.261000108E-3,3.444999922E-3,9.232000448E-3,1.224009719E-2
2.733314406E0,-1.447799988E-2,7.722000126E-3,-7.546999957E-3,1.806097934E-2
2.738310798E0,-8.413000032E-3,6.885999814E-3,-5.064899847E-2,5.180266990E-2
2.743307337E0,3.957999870E-3,8.940000087E-3,-6.741199642E-2,6.811730049E-2
2.748303724E0,9.239999927E-4,1.387999975E-3,-4.588599876E-2,4.591628471E-2
2.753300260E0,7.249999908E-4,-8.171999827E-3,-2.194499969E-2,2.342840621E-2
2.758296642E0,-1.570999972E-3,-4.269999918E-4,-2.671400085E-2,2.676356126E-2
2.763293178E0,3.726999974E-3,9.061000310E-3,-5.304599926E-2,5.394321359E-2
2.768289560E0,-3.468000097E-3,5.936999805E-3,-5.545999855E-2,5.588458133E-2
2.773285867E0,-1.025099959E-2,7.980000228E-4,-2.913100086E-2,3.089231309E-2
2.778282404E0,-2.331000054E-3,3.213000018E-3,-1.235899981E-2,1.298082458E-2
2.783279005E0,9.699999646E-5,4.860000045E-4,-2.434000000E-2,2.434504478E-2
2.788275392E0,2.333000069E-3,-1.975999912E-3,-5.546899885E-2,5.555319341E-2
2.793271700E0,-1.579999953E-4,7.929000072E-3,-6.743200123E-2,6.789675100E-2
2.798268221E0,-9.290000424E-3,5.148000084E-3,-4.349499941E-2,4.477299394E-2
2.803264608E0,-8.201000281E-3,-4.637000151E-3,-2.193699963E-2,2.387446605E-2
2.808261144E0,-2.619999868E-4,-1.772999996E-3,-2.669899911E-2,2.675908680E-2
2.813257454E0,9.190999903E-3,5.539000034E-3,-4.106099904E-2,4.244008297E-2
2.818254058E0,3.484999994E-3,2.688999986E-3,-5.545600131E-2,5.563042358E-2
2.823250445E0,3.184000030E-3,5.011000205E-3,-5.067399889E-2,5.102060508E-2
2.828246980E0,7.159999805E-4,-5.999999848E-5,-3.392500058E-2,3.393260851E-2
2.833243290E0,-1.665999996E-3,-4.741000012E-3,-2.434300072E-2,2.485627328E-2
2.838239673E0,5.719000008E-3,-6.756000221E-3,-3.151300177E-2,3.273254925E-2
2.843236202E0,-1.989000011E-3,-6.080999970E-3,-4.825700074E-2,4.867928515E-2
2.848232589E0,-9.012999944E-3,4.261999857E-3,-4.344400018E-2,4.457330998E-2
2.853229125E0,-3.468000097E-3,1.629999955E-3,-3.625699878E-2,3.645893423E-2
2.858225497E0,-3.201999934E-3,-3.290999914E-3,-3.386300057E-2,3.417288826E-2
2.863221805E0,4.220000003E-3,4.172000103E-3,-3.384900093E-2,3.436522732E-2
2.868218414E0,3.928000107E-3,-9.730000165E-4,-3.386500105E-2,3.410592632E-2
2.873214724E0,-3.521000035E-3,-7.849999820E-4,-4.104699939E-2,4.120521600E-2
2.878211260E0,-5.634000059E-3,6.585999858E-3,-3.864099830E-2,3.960106186E-2
2.883207647E0,2.006999915E-3,3.741000080E-3,-3.386000171E-2,3.412510581E-2
2.888204183E0,-4.849999968E-4,-1.263999962E-3,-4.344499856E-2,4.346608817E-2
2.893200570E0,-5.144999828E-3,3.759999992E-3,-4.822500050E-2,4.864421134E-2
2.898197091E0,2.572000027E-3,8.364999667E-3,-4.343299940E-2,4.430591203E-2
2.903193401E0,2.437999938E-3,5.485000089E-3,-3.147900105E-2,3.204616321E-2
2.908189803E0,-2.489000093E-3,-9.252999909E-3,-2.670400031E-2,2.837105499E-2
2.913186341E0,1.809999958E-4,-8.376999758E-3,-2.906700037E-2,3.025057680E-2
2.918182728E0,9.805000387E-3,2.007999923E-3,-3.382899985E-2,3.527848249E-2
2.923179250E0,4.248999991E-3,-4.539999936E-4,-4.342100024E-2,4.363076184E-2
2.928175637E0,-5.605000071E-3,-2.870000026E-4,-3.863300011E-2,3.903853342E-2
2.933172173E0,2.136999974E-3,7.034999784E-3,-3.383100033E-2,3.462072463E-2
2.938168570E0,4.420999903E-3,6.533999927E-3,-4.342300072E-2,4.413383495E-2
2.943165107E0,-7.845000364E-3,3.709000070E-3,-4.823099822E-2,4.900540686E-2
2.948161493E0,-7.184999995E-3,8.321000263E-3,-4.583200067E-2,4.713210749E-2
2.953158030E0,1.017300040E-2,5.346999969E-3,-3.865699843E-2,4.032919381E-2
2.958154425E0,2.090000082E-3,3.220000071E-4,-3.149700165E-2,3.156790929E-2
2.963150733E0,-1.727600023E-2,-2.002999885E-3,-4.107400030E-2,4.460432370E-2
2.968147269E0,-6.237000227E-3,5.779999774E-4,-4.822799936E-2,4.863305643E-2
2.973143875E0,1.470000017E-3,7.850999944E-3,-4.103299975E-2,4.180318372E-2
2.978140185E0,1.322999946E-3,7.298999932E-3,-3.147599846E-2,3.233827775E-2
2.983136569E0,1.175999991E-3,4.375000019E-3,-3.388800099E-2,3.418947517E-2
2.988133116E0,-1.246999949E-3,1.708999975E-3,-3.868500143E-2,3.874280611E-2
2.993129502E0,-5.851000082E-3,-7.149999728E-4,-4.586600140E-2,4.624322124E-2
2.998126053E0,-4.699999990E-4,1.872999943E-3,-4.345599934E-2,4.349888398E-2
3.003122439E0,9.233999997E-3,8.918000385E-3,-3.866999969E-2,4.074513913E-2
3.008118981E0,6.020999979E-3,1.066400018E-2,-3.391499817E-2,3.605829227E-2
3.013115291E0,3.181000007E-3,2.670000074E-3,-3.394600004E-2,3.419910204E-2
3.018111667E0,7.772999816E-3,4.935999867E-3,-4.113699868E-2,4.215490815E-2
3.023107977E0,4.798000213E-3,4.631000105E-3,-4.354999959E-2,4.405756953E-2
3.028104590E0,-3.180000058E-4,1.968000084E-3,-4.356100038E-2,4.360659242E-2
3.033101125E0,2.189999912E-3,9.108000435E-3,-4.356199875E-2,4.455782206E-2
3.038097435E0,2.089000074E-3,3.664999967E-3,-3.879600018E-2,3.902468163E-2
3.043093833E0,-5.080000265E-4,1.173999975E-3,-3.401200101E-2,3.403604784E-2
3.048090447E0,4.288999829E-3,1.280999975E-3,-3.879800066E-2,3.905536245E-2
3.053086985E0,8.786000311E-3,-3.501000116E-3,-4.119699821E-2,4.226870550E-2
3.058083285E0,1.050900016E-2,-7.868000306E-3,-4.598300159E-2,4.782029850E-2
3.063079669E0,7.300999947E-3,-1.184799988E-2,-4.357799888E-2,4.574627512E-2
3.068076197E0,-2.820000052E-3,-5.913000088E-3,-4.115699977E-2,4.167510768E-2
3.073072583E0,-4.892999772E-3,-2.889000112E-3,-3.634500131E-2,3.678650416E-2
3.078069120E0,3.900000011E-4,-4.927000031E-3,-3.393099830E-2,3.428906640E-2
3.083065502E0,2.824000083E-3,3.849999921E-4,-3.391499817E-2,3.403454572E-2
3.088062038E0,2.653999953E-3,3.499999875E-4,-3.870699927E-2,3.879945887E-2
3.093058425E0,-2.284999937E-3,4.370000097E-4,-4.349499941E-2,4.355717125E-2
3.098054732E0,3.870000073E-4,5.280000041E-4,-4.109400138E-2,4.109921535E-2
3.103051269E0,7.619000040E-3,7.089999854E-4,-4.348099977E-2,4.414916968E-2
3.108047870E0,2.155000111E-3,3.171999939E-3,-4.109700024E-2,4.127552590E-2
3.113044180E0,-3.410000063E-4,3.020999953E-3,-4.349699989E-2,4.360311596E-2
3.118040565E0,2.271000063E-3,-2.002000110E-3,-4.589499906E-2,4.599474301E-2
3.123037129E0,-1.239999983E-4,-4.089999944E-3,-3.870199993E-2,3.891771158E-2
3.128033516E0,2.359000035E-3,3.557000076E-3,-3.389799967E-2,3.416564814E-2
3.133029823E0,4.515999928E-3,3.355999943E-3,-3.630299866E-2,3.673642202E-2
3.138026351E0,6.490999833E-3,7.849999820E-4,-4.349799827E-2,4.398664749E-2
3.143022737E0,3.624999896E-3,-1.443000045E-3,-4.110400006E-2,4.128875990E-2
3.148019245E0,1.001000055E-3,3.590000095E-3,-4.349499941E-2,4.365438209E-2
3.153015632E0,3.395000007E-3,3.305000020E-3,-3.871500120E-2,3.900385068E-2
3.158012140E0,5.576000083E-3,-8.937000297E-3,-3.393900022E-2,3.553614339E-2
3.163008527E0,-4.513999913E-3,-1.046099979E-2,-3.871000186E-2,4.035186434E-2
3.168005063E0,-1.362800039E-2,1.289999927E-4,-3.866999969E-2,4.100131597E-2
3.173001450E0,-9.987999685E-3,4.918999970E-3,-3.625699878E-2,3.792791398E-2
3.177997986E0,5.210000090E-4,4.606000148E-3,-3.864499927E-2,3.892200723E-2
3.182994373E0,2.841999987E-3,2.037999919E-3,-4.104699939E-2,4.119571054E-2
3.187990681E0,-6.897999905E-3,-2.800999908E-3,-4.823299870E-2,4.880420235E-2
3.192987217E0,-1.323999953E-3,-2.418000018E-3,-5.299700052E-2,5.306865142E-2
3.197983589E0,1.793400012E-2,-2.055000048E-3,-3.861900046E-2,4.262955058E-2
3.202980125E0,9.080000222E-3,-4.155000206E-3,-2.187700011E-2,2.404815096E-2
3.207976508E0,-3.984199837E-2,1.292799972E-2,-3.624999896E-2,5.539476902E-2
3.212973044E0,-5.299500003E-2,2.857900038E-2,-7.692600042E-2,9.768745483E-2
3.217969431E0,4.592600092E-2,-4.798000213E-3,-9.127199650E-2,1.022878082E-1
3.222965967E0,1.598459929E-1,-5.658899993E-2,6.862000097E-3,1.697060500E-1
3.227962354E0,-3.224800155E-2,-6.250999868E-3,7.860500365E-2,8.519245978E-2
3.232958662E0,-2.653599977E-1,8.474799991E-2,-9.375300258E-2,2.939179773E-1
3.237955202E0,1.006079987E-1,-2.527200058E-2,-1.606269926E-1,1.912110723E-1
3.242951589E0,1.665479988E-1,-3.428699821E-2,9.310999885E-3,1.702954165E-1
3.247948125E0,-1.179030016E-1,4.285699874E-2,-3.151899949E-2,1.293494780E-1
3.252944512E0,8.412799984E-2,-3.265399858E-2,1.401999965E-2,9.132559538E-2
3.257941048E0,-9.106300026E-2,4.412499815E-2,-3.629799932E-2,1.075036289E-1
3.262937435E0,3.154399991E-2,-5.044000223E-3,-8.417499810E-2,9.003275057E-2
3.267933971E0,-7.599999662E-5,1.248999964E-2,-6.264799833E-2,6.388096401E-2
3.272930291E0,1.190499961E-2,-5.059000105E-3,-2.436600067E-2,2.758667226E-2
3.277926674E0,1.604899950E-2,-2.609699965E-2,-2.675599977E-2,4.067563521E-2
3.282923284E0,-5.719799921E-2,3.836899996E-2,-1.952599920E-2,7.158949585E-2
3.287919823E0,9.890700132E-2,-6.062300131E-2,-6.024299935E-2,1.307171074E-1
3.292916132E0,-1.492229998E-1,7.165499777E-2,-7.218500227E-2,1.805896368E-1
3.297912541E0,1.723899990E-1,-6.578099728E-2,1.642600074E-2,1.852437985E-1
3.302909077E0,-8.392000198E-2,-1.002299972E-2,-1.009489968E-1,1.316576136E-1
3.307905468E0,-6.049299985E-2,9.636700153E-2,3.325999901E-2,1.185421003E-1
3.312902005E0,2.275840044E-1,-1.633100063E-1,-5.070300028E-2,2.846672293E-1
3.317898314E0,-2.586309910E-1,1.021459997E-1,-1.463319957E-1,3.142241998E-1
3.322894678E0,6.276299804E-2,1.034860015E-1,9.077999741E-2,1.512929422E-1
3.327891293E0,2.183900028E-1,-2.452709973E-1,-4.842799902E-2,3.319598267E-1
3.332887603E0,-3.008579910E-1,1.084979996E-1,-1.653800011E-1,3.600526231E-1
3.337884130E0,4.071599990E-2,2.048860043E-1,1.148519963E-1,2.383842454E-1
3.342880517E0,3.011280000E-1,-2.889510095E-1,-5.331499875E-2,4.207294230E-1
3.347877068E0,-2.341690063E-1,-5.580800027E-2,-2.444750071E-1,3.431001100E-1
3.352873454E0,-1.853269935E-1,3.830110133E-1,7.203499973E-2,4.315467205E-1
3.357869991E0,3.187470138E-1,-7.312899828E-2,1.383370012E-1,3.550839832E-1
3.362866377E0,8.892399818E-2,-4.048649967E-1,-1.994999945E-1,4.600254241E-1
3.367862942E0,-3.331449926E-1,1.596110016E-1,-1.745550036E-1,4.085715448E-1
3.372859328E0,-4.378800094E-2,4.239700139E-1,1.558499932E-1,4.538250567E-1
3.377855865E0,3.357900083E-1,-1.671459973E-1,8.779799938E-2,3.852287668E-1
3.382852175E0,5.657999963E-2,-4.524540007E-1,-2.402449995E-1,5.153965259E-1
3.387848557E0,-3.266189992E-1,1.141339988E-1,-1.911610067E-1,3.952835322E-1
3.392845096E0,-1.190510020E-1,5.044829845E-1,1.345639974E-1,5.355218877E-1
3.397841482E0,2.859649956E-1,9.397000074E-3,1.597670019E-1,3.277037949E-1
3.402838019E0,1.929740012E-1,-5.206590295E-1,-1.566880047E-1,5.769540024E-1
3.407834405E0,-2.039709985E-1,-1.880690008E-1,-2.872120142E-1,3.993305128E-1
3.412830942E0,-2.509000003E-1,4.683400095E-1,1.051099971E-2,5.314166498E-1
3.417827343E0,1.004199982E-1,3.758800030E-1,2.274260074E-1,4.506578985E-1
3.422823880E0,3.171679974E-1,-2.878510058E-1,2.045799978E-2,4.288032997E-1
3.427820190E0,7.287500054E-2,-5.171319842E-1,-2.545810044E-1,5.809885908E-1
3.432816572E0,-2.588559985E-1,-7.048000116E-3,-2.196689993E-1,3.395741032E-1
3.437813188E0,-2.078099996E-1,5.422940254E-1,6.799899787E-2,5.847150329E-1
3.442809741E0,1.134169996E-1,3.215200007E-1,2.176280022E-1,4.044755542E-1
3.447806051E0,2.834880054E-1,-3.304750025E-1,-5.973000079E-3,4.354478766E-1
3.452802435E0,7.316499949E-2,-5.175819993E-1,-2.664889991E-1,5.867372749E-1
3.457798772E0,-2.417220026E-1,-3.610000014E-2,-2.291689962E-1,3.350390505E-1
3.462795386E0,-2.280499935E-1,5.229979753E-1,5.138599873E-2,5.728649078E-1
3.467791924E0,6.143699959E-2,4.091750085E-1,2.274069935E-1,4.721362443E-1
3.472788234E0,2.788400054E-1,-2.021680027E-1,5.872600153E-2,3.493885991E-1
3.477784627E0,1.454589963E-1,-5.488179922E-1,-2.117040008E-1,6.059522194E-1
3.482781241E0,-1.635800004E-1,-2.206680030E-1,-2.821899951E-1,3.938070306E-1
3.487777540E0,-2.641400099E-1,3.954010010E-1,-4.665699974E-2,4.777957430E-1
3.492774077E0,-4.554099962E-2,5.244079828E-1,1.823859960E-1,5.570838058E-1
3.497770469E0,2.237869948E-1,3.012200072E-2,1.404120028E-1,2.659012683E-1
3.502767005E0,2.194889933E-1,-4.991300106E-1,-1.161480024E-1,5.574912951E-1
3.507763392E0,-3.827900067E-2,-4.247500002E-1,-3.066610098E-1,5.252797536E-1
3.512759918E0,-2.550610006E-1,1.566659957E-1,-1.640599966E-1,3.413444459E-1
3.517756305E0,-1.710049957E-1,5.791040063E-1,9.916400164E-2,6.119131130E-1
3.522752841E0,1.111939996E-1,3.289319873E-1,1.983840019E-1,3.998956989E-1
3.527749156E0,2.718710005E-1,-2.901639938E-1,1.787200011E-2,3.980306428E-1
3.532745539E0,1.199039966E-1,-5.526469946E-1,-2.331770062E-1,6.116920674E-1
3.537742077E0,-1.653539985E-1,-1.785099953E-1,-2.652899921E-1,3.599813095E-1
3.542738464E0,-2.539359927E-1,4.194250107E-1,-3.467499837E-2,4.915314675E-1
3.547735029E0,-6.040799990E-2,5.297229886E-1,1.751350015E-1,5.611843190E-1
3.552731416E0,1.957129985E-1,4.226899892E-2,1.427560002E-1,2.459055136E-1
3.557727937E0,2.321889997E-1,-4.904040098E-1,-8.985199779E-2,5.499829142E-1
3.562724324E0,-2.209999948E-4,-4.600479901E-1,-2.852169871E-1,5.412882151E-1
3.567720860E0,-2.370350063E-1,8.349899948E-2,-1.856729984E-1,3.124614208E-1
3.572717185E0,-2.048570067E-1,5.578340292E-1,6.577900052E-2,5.978896840E-1
3.577713798E0,4.430200160E-2,4.074530005E-1,1.937990040E-1,4.533637270E-1
3.582710209E0,2.559829950E-1,-1.871159971E-1,6.346499920E-2,3.233689785E-1
3.587706517E0,1.748189926E-1,-5.590040088E-1,-1.878339946E-1,6.150843613E-1
3.592703053E0,-1.056429967E-1,-2.994860113E-1,-2.823050022E-1,4.249099057E-1
3.597699440E0,-2.687590122E-1,3.067309856E-1,-9.688600153E-2,4.191684643E-1
3.602695976E0,-1.310829967E-1,5.726580024E-1,1.371960044E-1,6.032766226E-1
3.607692338E0,1.500200033E-1,2.081940025E-1,1.693979949E-1,3.074840236E-1
3.612688874E0,2.667370141E-1,-3.840889931E-1,-2.763600089E-2,4.684407517E-1
3.617685275E0,9.842599928E-2,-5.427730083E-1,-2.521069944E-1,6.065048661E-1
3.622681812E0,-1.754740030E-1,-1.094859987E-1,-2.458779961E-1,3.213009471E-1
3.627678184E0,-2.416629940E-1,4.583899975E-1,-8.272999898E-3,5.182574987E-1
3.632674492E0,-3.231199831E-2,5.054140091E-1,1.918359995E-1,5.415611106E-1
3.637671028E0,2.215220034E-1,5.561999977E-3,1.427240074E-1,2.635774575E-1
3.642667391E0,2.247020006E-1,-4.953899980E-1,-9.701699764E-2,5.525527459E-1
3.647663927E0,-1.913899928E-2,-4.358249903E-1,-2.803719938E-1,5.185732141E-1
3.652660314E0,-2.446179986E-1,1.271239966E-1,-1.712960005E-1,3.245624678E-1
3.657656855E0,-1.973589957E-1,5.617190003E-1,8.242700249E-2,6.010599132E-1
3.662653241E0,6.786800176E-2,3.655560017E-1,1.984719932E-1,4.214598298E-1
3.667649764E0,2.608090043E-1,-2.278849930E-1,4.666100070E-2,3.494712516E-1
3.672646150E0,1.529999971E-1,-5.580419898E-1,-1.925680041E-1,6.098379274E-1
3.677642682E0,-1.278540045E-1,-2.555780113E-1,-2.774190009E-1,3.982813934E-1
3.682639068E0,-2.650839984E-1,3.539510071E-1,-8.252599835E-2,4.498459537E-1
3.687635376E0,-9.426300228E-2,5.463740230E-1,1.586000025E-1,5.766836632E-1
3.692631966E0,1.861840039E-1,1.195259988E-1,1.644999981E-1,2.757012824E-1
3.697628275E0,2.568770051E-1,-4.389539957E-1,-5.631700158E-2,5.117010951E-1
3.702624798E0,3.912099823E-2,-4.898310006E-1,-2.758089900E-1,5.635028488E-1
3.707621184E0,-2.272830009E-1,2.282899991E-2,-2.145490050E-1,3.133847497E-1
3.712617721E0,-2.196000069E-1,5.360469818E-1,4.186800122E-2,5.807955400E-1
3.717614097E0,3.567999974E-2,4.114199877E-1,1.986829937E-1,4.582732816E-1
3.722610634E0,2.624529898E-1,-1.786929965E-1,7.552000135E-2,3.263679357E-1
3.727607026E0,1.855390072E-1,-5.465540290E-1,-1.805880070E-1,6.047793466E-1
3.732603333E0,-1.029319987E-1,-2.809779942E-1,-2.846690118E-1,4.130134088E-1
3.737599855E0,-2.614949942E-1,3.308190107E-1,-8.254999667E-2,4.296921593E-1
3.742596241E0,-1.125300005E-1,5.683320165E-1,1.538410038E-1,5.994425213E-1
3.747592778E0,1.743690073E-1,1.540980041E-1,1.740649939E-1,2.906017338E-1
3.752589174E0,2.581340075E-1,-4.311389923E-1,-3.962200135E-2,5.040673561E-1
3.757585711E0,4.756899923E-2,-4.994400144E-1,-2.687169909E-1,5.691326373E-1
3.762582088E0,-2.194799930E-1,1.929000020E-3,-2.098490000E-1,3.036639444E-1
3.767578624E0,-2.268629968E-1,5.264260173E-1,4.182799906E-2,5.747527751E-1
3.772575011E0,2.653799951E-2,4.385319948E-1,1.962769926E-1,4.811852385E-1
3.777571538E0,2.515830100E-1,-1.442780048E-1,8.263900131E-2,3.015615329E-1
3.782567848E0,1.899549961E-1,-5.558819771E-1,-1.663590074E-1,6.105431945E-1
3.787564446E0,-1.012900025E-1,-3.015820086E-1,-2.895970047E-1,4.302066917E-1
3.792560833E0,-2.911190093E-1,3.647150099E-1,-8.024299890E-2,4.735042290E-1
3.797557176E0,-1.283499971E-2,4.125640094E-1,1.776430011E-1,4.493671494E-1
3.802553712E0,3.091540039E-1,-2.017409950E-1,2.814099938E-2,3.702263403E-1
3.807550084E0,-1.189019978E-1,-1.416179985E-1,-2.063830048E-1,2.771051917E-1
3.812546620E0,-1.184519976E-1,1.514230072E-1,-7.108000107E-3,1.923806813E-1
3.817543007E0,1.600860059E-1,-4.335200042E-2,-7.346999831E-3,1.660147693E-1
3.822539529E0,-7.863199711E-2,1.067200024E-2,-6.490799785E-2,1.025179533E-1
3.827535916E0,-1.189699955E-2,1.951600052E-2,-5.045700073E-2,5.539243448E-2
3.832532452E0,4.907200113E-2,-1.552799996E-2,-1.936499961E-2,5.499257484E-2
3.837528844E0,-9.425900131E-2,4.801499844E-2,-6.009300053E-2,1.216608734E-1
3.842525380E0,9.384299815E-2,-3.963699937E-2,-7.204999775E-2,1.247750063E-1
3.847521757E0,-2.009700052E-2,1.905599982E-2,1.651100069E-2,3.224335130E-2
3.852518065E0,-1.234989986E-1,4.351999983E-2,-1.128040031E-1,1.728315253E-1
3.857514601E0,1.822700053E-1,-5.320100114E-2,-2.413799986E-2,1.914036165E-1
3.862511012E0,-2.808099985E-2,2.088299952E-2,2.362699993E-2,4.222413229E-2
3.867507548E0,-1.767250001E-1,6.193599850E-2,-9.371899813E-2,2.094064092E-1
3.872503935E0,8.374699950E-2,-1.727600023E-2,-1.079740003E-1,1.377330928E-1
3.877500485E0,1.511099935E-1,-4.399900138E-2,1.168399956E-2,1.578184339E-1
3.882496795E0,-5.428799987E-2,1.003600005E-2,4.510299861E-2,7.128947125E-2
3.887493183E0,-1.439090073E-1,4.956899956E-2,-5.304000154E-2,1.611835285E-1
3.892489798E0,-1.868399978E-2,1.900899969E-2,-1.391569972E-1,1.416866394E-1
3.897486356E0,1.132970005E-1,-2.754599974E-2,-9.126099944E-2,1.480660746E-1
3.902482665E0,7.556200027E-2,-2.709200047E-2,1.401999965E-2,8.148713251E-2
3.907479050E0,-4.124100134E-2,8.724999614E-3,4.511399940E-2,6.174316765E-2
3.912475586E0,-7.930400223E-2,2.193200029E-2,-1.952500083E-2,8.456573220E-2
3.917471973E0,-1.572299935E-2,5.644000135E-3,-9.849599749E-2,9.990259740E-2
3.922468510E0,4.784300178E-2,-6.333000027E-3,-9.847500175E-2,1.096648790E-1
3.927464882E0,3.231799975E-2,-7.693999913E-3,-3.625100106E-2,4.917098555E-2
3.932461419E0,-5.774000194E-3,-2.133999951E-3,4.437000025E-3,7.588148869E-3
3.937457786E0,-2.181000076E-2,5.022999831E-3,-1.231000014E-2,2.554295918E-2
3.942454323E0,-1.292499993E-2,4.534000065E-3,-5.299799889E-2,5.473938862E-2
3.947450694E0,2.228999976E-3,-2.777999965E-3,-6.017300114E-2,6.027831941E-2
3.952447231E0,1.725999988E-3,-2.260999987E-3,-3.861699998E-2,3.872162038E-2
3.957443541E0,-8.399999933E-4,2.835999941E-3,-2.663799934E-2,2.680170712E-2
3.962439923E0,6.581999827E-3,4.966999870E-3,-3.861499950E-2,3.948559226E-2
3.967436462E0,6.302000023E-3,-3.380000126E-4,-5.778700113E-2,5.813060251E-2
3.972432848E0,-3.501999890E-3,2.250999911E-3,-5.060299858E-2,5.077395464E-2
3.977429385E0,-3.103999887E-3,2.308999887E-3,-2.665399946E-2,2.693328764E-2
3.982425795E0,4.093999974E-3,2.194999950E-3,-1.468400005E-2,1.540125703E-2
3.987422332E0,1.305100042E-2,6.744999904E-3,-3.385600075E-2,3.690599440E-2
3.992418718E0,1.418999955E-2,6.165000144E-3,-6.262300164E-2,6.450584197E-2
3.997415225E0,1.318000024E-3,5.814000033E-3,-6.504300237E-2,6.531563272E-2
4.002411612E0,-5.654000212E-3,-4.077000078E-3,-4.589600116E-2,4.642232836E-2
4.007407910E0,2.101999940E-3,-5.987000186E-3,-2.193100005E-2,2.283049142E-2
4.012404524E0,-6.239999784E-4,-7.190000033E-4,-2.431499958E-2,2.433362985E-2
4.017400857E0,-3.116999986E-3,-6.830000202E-4,-4.825700074E-2,4.836238516E-2
4.022397394E0,-2.966000000E-3,-4.830000107E-4,-6.261499971E-2,6.268706911E-2
4.027393780E0,4.478999879E-3,-2.553000115E-3,-5.062999949E-2,5.089180777E-2
4.032390312E0,4.186000209E-3,-2.184000099E-3,-3.625800088E-2,3.656412288E-2
4.037386699E0,1.504000043E-3,5.191999953E-3,-3.625699878E-2,3.665772552E-2
4.042383240E0,-3.443999914E-3,7.147000171E-3,-3.866700083E-2,3.947249295E-2
4.047379627E0,-7.961999625E-3,1.383200008E-2,-4.346600175E-2,4.630346609E-2
4.052376163E0,-4.902000073E-3,3.195999889E-3,-4.109299928E-2,4.150757292E-2
4.057372555E0,-4.503000062E-3,-6.533000153E-3,-3.390900046E-2,3.482495388E-2
4.062368862E0,-6.438000128E-3,1.310999971E-3,-4.106400162E-2,4.158628134E-2
4.067365374E0,-3.410999896E-3,3.715999890E-3,-5.063100159E-2,5.088164598E-2
4.072361761E0,4.157000221E-3,1.151000033E-3,-5.302499980E-2,5.320015090E-2
4.077358297E0,6.188999861E-3,-1.187999966E-3,-4.584499821E-2,4.627611613E-2
4.082354684E0,3.248000052E-3,3.836000105E-3,-3.387499973E-2,3.424587578E-2
4.087351220E0,-1.748000039E-3,1.112999977E-3,-3.388899937E-2,3.395229818E-2
4.092347598E0,-1.529000001E-3,1.016999944E-3,-4.346499965E-2,4.350377368E-2
4.097344134E0,-3.706000047E-3,3.347000107E-3,-4.585799947E-2,4.612909019E-2
4.102340521E0,3.884000005E-3,-3.988000099E-3,-4.825099930E-2,4.857106684E-2
4.107336829E0,6.033999845E-3,-5.793000106E-3,-4.584300146E-2,4.659987969E-2
4.112333365E0,3.103000112E-3,-2.765000099E-3,-4.104400054E-2,4.125389455E-2
4.117329989E0,4.199999967E-4,-2.405999927E-3,-3.624799848E-2,3.633018895E-2
4.122326376E0,4.600000102E-4,-4.588999785E-3,-3.863500059E-2,3.890930209E-2
4.127322713E0,5.288000219E-3,-1.686000032E-3,-4.580299929E-2,4.613805681E-2
4.132319249E0,-2.258999972E-3,1.056400035E-2,-4.100999981E-2,4.240897628E-2
4.137315651E0,-4.375999793E-3,1.446400024E-2,-3.384999931E-2,3.706992218E-2
4.142312187E0,-6.428999826E-3,1.093399990E-2,-4.106400162E-2,4.297832735E-2
4.147308574E0,-3.506999929E-3,1.022300031E-2,-4.586600140E-2,4.712216960E-2
4.152305095E0,4.066000227E-3,7.189000025E-3,-3.630099818E-2,3.722870597E-2
4.157301482E0,3.794000018E-3,1.997000072E-3,-3.392399848E-2,3.419386082E-2
4.162298000E0,-1.144999987E-3,-2.754000016E-3,-3.632000089E-2,3.644225577E-2
4.167294386E0,-3.365000011E-3,-1.499999962E-5,-4.348900169E-2,4.361899492E-2
4.172290694E0,-3.094000043E-3,2.506999997E-3,-5.305700004E-2,5.320623214E-2
4.177287220E0,-7.519999985E-3,7.234000135E-3,-4.826400056E-2,4.937909384E-2
4.182283607E0,-4.385999870E-3,6.752999965E-3,-4.108500108E-2,4.186666117E-2
4.187280163E0,3.256000113E-3,-8.880000096E-4,-3.869700059E-2,3.884389187E-2
4.192276550E0,5.450999830E-3,-5.485000089E-3,-4.348300025E-2,4.416525711E-2
4.197273102E0,2.809999860E-4,-2.388000023E-3,-4.346600175E-2,4.353245701E-2
4.202269488E0,-6.837999914E-3,1.001800038E-2,-3.627200052E-2,3.824626251E-2
4.207266015E0,-6.173999980E-3,6.872999948E-3,-3.149599954E-2,3.282307712E-2
4.212262324E0,1.107699983E-2,-9.050000226E-4,-3.868800029E-2,4.025270571E-2
4.217258726E0,1.967599988E-2,-3.208999988E-3,-4.827700183E-2,5.223132736E-2
4.222255341E0,3.605999984E-3,-3.969999962E-4,-5.068499967E-2,5.081466360E-2
4.227251880E0,-1.396000036E-3,2.177000046E-3,-4.110699892E-2,4.118826903E-2
4.232248190E0,3.591000102E-3,-2.809999860E-4,-4.110600054E-2,4.126351322E-2
4.237244574E0,8.151000366E-3,2.155000111E-3,-4.829199985E-2,4.902244467E-2
4.242241073E0,2.755000023E-3,2.005999908E-3,-4.830500111E-2,4.842506782E-2
4.247237459E0,2.611000091E-3,9.157000110E-3,-4.112600163E-2,4.221393114E-2
4.252234000E0,7.500000356E-5,1.567500085E-2,-3.875400126E-2,4.180411332E-2
4.257230386E0,-4.641999956E-3,2.474999987E-3,-4.118499905E-2,4.151960904E-2
4.262226923E0,-4.265000112E-3,-4.798999988E-3,-4.357500002E-2,4.404544532E-2
4.267223315E0,-3.916999791E-3,-1.762000029E-3,-3.876100108E-2,3.899824017E-2
4.272219851E0,-8.394000120E-3,8.970000199E-4,-4.114399850E-2,4.200110070E-2
4.277216257E0,-9.983999655E-3,3.335000016E-3,-4.352200031E-2,4.477685770E-2
4.282212793E0,2.929999959E-3,7.810000097E-4,-4.111900181E-2,4.123065814E-2
4.287209195E0,7.550000213E-3,3.228999907E-3,-4.112000018E-2,4.193188952E-2
4.292205502E0,9.383000433E-3,7.755000144E-3,-4.113699868E-2,4.290027255E-2
4.297202039E0,1.480999985E-3,-7.699999696E-5,-4.595699906E-2,4.598092053E-2
4.302198659E0,1.444000052E-3,-2.332000062E-3,-4.595300183E-2,4.603478834E-2
4.307194969E0,6.198000163E-3,3.950000100E-4,-3.636699915E-2,3.689349344E-2
4.312191330E0,-1.440000022E-3,-4.317999817E-3,-3.637100011E-2,3.665471827E-2
4.317187866E0,-6.027999800E-3,-6.233999971E-3,-3.874799982E-2,3.970651114E-2
4.322184176E0,-3.037000075E-3,1.597000053E-3,-3.871800005E-2,3.886974796E-2
4.327180764E0,-3.020000004E-4,3.967999946E-3,-3.871300071E-2,3.891699695E-2
4.332177151E0,-4.985000007E-3,-3.439000109E-3,-3.632500023E-2,3.682638440E-2
4.337173702E0,-4.588000011E-3,-5.427999888E-3,-3.630699962E-2,3.699609640E-2
4.342170012E0,5.629999796E-4,-6.500000018E-5,-3.628399968E-2,3.628842552E-2
4.347166625E0,-1.909999992E-3,-2.239000052E-3,-4.106700048E-2,4.117231776E-2
4.352162949E0,-4.060000181E-3,-4.317999817E-3,-3.866000101E-2,3.911169137E-2
4.357159334E0,1.155999955E-3,5.743000191E-3,-3.145400062E-2,3.199488306E-2
4.362155870E0,3.522000043E-3,5.346999969E-3,-3.625399992E-2,3.681504316E-2
4.367152486E0,3.296999959E-3,-2.288999967E-3,-4.106200114E-2,4.125769828E-2
4.372148795E0,-6.479000207E-3,5.259999889E-4,-3.626300022E-2,3.684100032E-2
4.377145180E0,-3.556000069E-3,3.087999998E-3,-3.624900058E-2,3.655367182E-2
4.382141716E0,-8.870000020E-4,5.326999817E-3,-4.103799909E-2,4.139179950E-2
4.387138108E0,1.662999974E-3,4.993000068E-3,-4.104600102E-2,4.138199872E-2
4.392134416E0,6.289000157E-3,-2.600000007E-3,-4.106099904E-2,4.162111441E-2
4.397131034E0,3.334000008E-3,-4.753999878E-3,-4.106200114E-2,4.147051975E-2
4.402127344E0,-1.761000021E-3,5.351000000E-3,-3.865500167E-2,3.906332649E-2
4.407123856E0,8.640000015E-4,2.612000098E-3,-4.105700180E-2,4.114907578E-2
4.412120243E0,3.264999948E-3,-4.774999805E-3,-4.585300013E-2,4.621643073E-2
4.417116769E0,3.073999891E-3,-1.940999995E-3,-4.344699904E-2,4.359883808E-2
4.422113156E0,5.293999799E-3,-6.436999887E-3,-4.104800150E-2,4.188555632E-2
4.427109693E0,2.527999924E-3,3.812999930E-3,-4.342700168E-2,4.366731303E-2
4.432106108E0,2.395000076E-3,1.079799980E-2,-4.343700036E-2,4.482305016E-2
4.437102645E0,9.455000050E-3,-1.970000099E-3,-4.585700110E-2,4.686301821E-2
4.442099041E0,8.732999675E-3,-1.124299970E-2,-5.064500123E-2,5.260785564E-2
4.447095349E0,8.077999577E-3,-7.736000232E-3,-5.301700160E-2,5.418396659E-2
4.452091966E0,9.980999865E-3,1.599999960E-4,-4.821399972E-2,4.923652838E-2
4.457088505E0,6.818000227E-3,2.682999941E-3,-3.385800123E-2,3.464170699E-2
4.462084815E0,1.200999948E-3,4.951999988E-3,-2.429700084E-2,2.482557058E-2
4.467081185E0,-3.746499866E-2,1.897200011E-2,-4.346700013E-2,6.043958151E-2
4.472077722E0,-5.320400000E-2,3.422699869E-2,-8.655499667E-2,1.072097034E-1
4.477074103E0,4.575400054E-2,-2.008999931E-3,-8.654599637E-2,9.791666934E-2
4.482070640E0,1.526020020E-1,-5.655200034E-2,1.636599936E-2,1.635645001E-1
4.487067036E0,-3.638200089E-2,9.389999905E-4,8.093599975E-2,8.874214199E-2
4.492063573E0,-2.498890013E-1,8.174800128E-2,-1.010119990E-1,2.816570123E-1
4.497059973E0,1.099859998E-1,-3.279199824E-2,-1.750790030E-1,2.093439576E-1
4.502056510E0,1.606490016E-1,-3.861600161E-2,9.232000448E-3,1.654827094E-1
4.507052820E0,-1.352719963E-1,4.129400104E-2,-2.918099985E-2,1.444134282E-1
4.512049212E0,7.781500369E-2,-3.897999972E-2,6.804999895E-3,8.729789918E-2
4.517045751E0,-8.736299723E-2,3.107400052E-2,-4.349499941E-2,1.024192451E-1
4.522042137E0,3.494200110E-2,-1.456400007E-2,-9.852299839E-2,1.055454156E-1
4.527038683E0,-4.137999844E-3,1.590500027E-2,-6.021200120E-2,6.241455892E-2
4.532035069E0,1.298199967E-2,-9.127000347E-3,-2.672100067E-2,3.107806827E-2
4.537031606E0,2.566999989E-3,-1.554900035E-2,-3.389199823E-2,3.737684370E-2
4.542027993E0,-2.631100081E-2,2.637900040E-2,-3.864499927E-2,5.368013034E-2
4.547024529E0,6.982100010E-2,-4.041400179E-2,-9.373600036E-2,1.236717484E-1
4.552020916E0,-1.350850016E-1,7.596799731E-2,-5.540699884E-2,1.645874533E-1
4.557017452E0,1.662240028E-1,-7.624000311E-2,2.052000025E-3,1.828856689E-1
4.562013747E0,-1.400499940E-1,4.031300172E-2,-9.374699742E-2,1.732848477E-1
4.567010129E0,4.403800145E-2,3.470600024E-2,3.083899990E-2,6.399137394E-2
4.572006668E0,1.270949990E-1,-1.287309974E-1,-1.081689969E-1,2.107731965E-1
4.577003036E0,-2.526299953E-1,1.531279981E-1,-1.032010019E-1,3.129225865E-1
4.581999649E0,2.120659947E-1,-4.873400182E-2,7.153499871E-2,2.290507479E-1
4.586995939E0,1.745199971E-2,-1.501120031E-1,-1.153770015E-1,1.901316340E-1
4.591992475E0,-2.790989876E-1,2.292840034E-1,-5.753799900E-2,3.657567777E-1
4.596988891E0,2.618309855E-1,-4.632699862E-2,9.547899663E-2,2.825206091E-1
4.601985427E0,6.790100038E-2,-2.533200085E-1,-1.920710057E-1,3.250735975E-1
4.606981809E0,-3.068549931E-1,2.478879988E-1,-1.076610014E-1,4.089001565E-1
4.611978345E0,1.719080061E-1,1.360190064E-1,1.674370021E-1,2.758417704E-1
4.616974655E0,2.273939997E-1,-3.617410064E-1,-9.172199667E-2,4.370097384E-1
4.621971254E0,-2.876420021E-1,1.411299966E-2,-2.227360010E-1,3.640720043E-1
4.626967641E0,-1.099079996E-1,3.893010020E-1,8.886399865E-2,4.141640361E-1
4.631963949E0,3.375490010E-1,-1.415860057E-1,8.801099658E-2,3.764729215E-1
4.636960470E0,4.143299907E-2,-3.836799860E-1,-2.305189967E-1,4.495175557E-1
4.641956857E0,-3.332709968E-1,2.247470021E-1,-1.289359927E-1,4.221436515E-1
4.646953388E0,6.293000188E-3,3.828459978E-1,1.821320057E-1,4.240079332E-1
4.651949775E0,3.388389945E-1,-2.624630034E-1,3.989600018E-2,4.304536946E-1
4.656946311E0,-1.011199970E-2,-4.079149961E-1,-2.735309899E-1,4.912393501E-1
4.661942698E0,-3.349739909E-1,2.364230007E-1,-1.358740032E-1,4.319318865E-1
4.666939235E0,-1.926999912E-2,4.366169870E-1,1.799409986E-1,4.726356833E-1
4.671935626E0,3.367620111E-1,-1.749069989E-1,8.068300039E-2,3.879572875E-1
4.676932163E0,9.587100148E-2,-4.833700061E-1,-2.353630066E-1,5.461076419E-1
4.681928536E0,-3.049100041E-1,5.954499915E-2,-2.221370041E-1,3.819169624E-1
4.686925073E0,-1.589580029E-1,5.241659880E-1,1.013190001E-1,5.570306719E-1
4.691921382E0,2.541030049E-1,9.918799996E-2,1.911209971E-1,3.330673085E-1
4.696917769E0,2.379270047E-1,-4.983389974E-1,-1.111470014E-1,5.632980310E-1
4.701914308E0,-1.532029957E-1,-2.686440051E-1,-3.112330139E-1,4.387559097E-1
4.706910698E0,-2.835479975E-1,4.164150059E-1,-4.924599826E-2,5.061878035E-1
4.711907235E0,3.716599941E-2,4.383800030E-1,2.180989981E-1,4.910453253E-1
4.716903621E0,3.141880035E-1,-2.114460021E-1,6.131700054E-2,3.836447418E-1
4.721900150E0,1.109929979E-1,-5.215169787E-1,-2.378489971E-1,5.838420592E-1
4.726896536E0,-2.550950050E-1,-3.990900144E-2,-2.508679926E-1,3.600013052E-1
4.731892844E0,-2.163510025E-1,5.291669965E-1,4.886699840E-2,5.737712523E-1
4.736889385E0,1.272079945E-1,3.046900034E-1,2.200819999E-1,3.968046858E-1
4.741885771E0,2.818669975E-1,-3.650549948E-1,-1.786899939E-2,4.615554730E-1
4.746882304E0,2.379800007E-2,-4.773280025E-1,-2.902460098E-1,5.591521376E-1
4.751878919E0,-2.893390059E-1,9.419199824E-2,-2.050720006E-1,3.669383032E-1
4.756875218E0,-1.855069995E-1,5.653390288E-1,8.952199668E-2,6.016936532E-1
4.761871602E0,1.673790067E-1,2.565619946E-1,2.103600055E-1,3.716061367E-1
4.766868149E0,2.828510106E-1,-3.899869919E-1,-3.470500186E-2,4.830103365E-1
4.771864535E0,1.978600025E-2,-4.714089930E-1,-2.998510003E-1,5.590425269E-1
4.776861072E0,-2.738409936E-1,8.758600056E-2,-2.003310025E-1,3.504179046E-1
4.781857473E0,-1.857440025E-1,5.615860224E-1,8.947200328E-2,5.982348488E-1
4.786854009E0,1.456139982E-1,2.793610096E-1,2.103189975E-1,3.787876593E-1
4.791850310E0,2.868539989E-1,-3.690989912E-1,-2.039599977E-2,4.679052028E-1
4.796846692E0,5.947799981E-2,-5.002689958E-1,-2.832219899E-1,5.779458419E-1
4.801843231E0,-2.423270047E-1,1.813000068E-2,-2.195959985E-1,3.275262992E-1
4.806839636E0,-2.071940005E-1,5.389410257E-1,6.318800151E-2,5.808437885E-1
4.811836173E0,1.044180021E-1,3.422819972E-1,2.176139951E-1,4.188268564E-1
4.816832565E0,2.919979990E-1,-2.971880138E-1,2.510100044E-2,4.173890357E-1
4.821829101E0,1.025210023E-1,-5.351669788E-1,-2.474959940E-1,5.984718190E-1
4.826825488E0,-2.172349989E-1,-9.539700300E-2,-2.628600001E-1,3.541002861E-1
4.831822028E0,-2.487040013E-1,4.977419972E-1,3.480999963E-3,5.564286957E-1
4.836818338E0,2.584300004E-2,4.362840056E-1,2.107100040E-1,4.851909933E-1
4.841814951E0,2.725870013E-1,-1.726640016E-1,7.312799990E-2,3.308537972E-1
4.846811329E0,1.590079963E-1,-5.554980040E-1,-1.973679960E-1,6.105863585E-1
4.851807865E0,-1.584929973E-1,-2.316689938E-1,-2.846300006E-1,3.997559132E-1
4.856804175E0,-2.667860091E-1,4.141060114E-1,-5.386099964E-2,4.955396761E-1
4.861800558E0,-3.607200086E-2,5.175639987E-1,1.847130060E-1,5.507200528E-1
4.866797096E0,2.540050149E-1,-2.641800046E-2,1.307779998E-1,2.869134775E-1
4.871793483E0,2.209270000E-1,-5.342239738E-1,-1.328700036E-1,5.931765600E-1
4.876790009E0,-8.495499939E-2,-3.513630033E-1,-3.041099906E-1,4.723941134E-1
4.881786396E0,-2.784869969E-1,2.906500101E-1,-1.137799993E-1,4.183041048E-1
4.886782927E0,-1.135829985E-1,5.723419785E-1,1.466950029E-1,6.016609193E-1
4.891779314E0,1.901820004E-1,1.457819939E-1,1.669040024E-1,2.920248774E-1
4.896775850E0,2.558589876E-1,-4.579020143E-1,-6.594199687E-2,5.286647550E-1
4.901772247E0,-1.189999966E-4,-4.592149854E-1,-2.853739858E-1,5.406632304E-1
4.906768555E0,-2.680720091E-1,1.130879968E-1,-1.786649972E-1,3.414274130E-1
4.911765076E0,-1.829459965E-1,5.561980009E-1,8.950100094E-2,5.923140071E-1
4.916761692E0,1.337099969E-1,2.887929976E-1,2.007669955E-1,3.762806735E-1
4.921757987E0,2.830330133E-1,-3.413040042E-1,1.167000039E-3,4.433931346E-1
4.926754372E0,8.004199713E-2,-5.204470158E-1,-2.617189884E-1,5.880209575E-1
4.931750908E0,-2.282699943E-1,-5.072300136E-2,-2.507399917E-1,3.428564664E-1
4.936747295E0,-2.373619974E-1,5.121260285E-1,1.547900029E-2,5.646710426E-1
4.941743832E0,5.054099858E-2,4.086489975E-1,1.987109929E-1,4.572028592E-1
4.946740151E0,2.857519984E-1,-2.051769942E-1,5.637599900E-2,3.562724475E-1
4.951736765E0,1.543889940E-1,-5.468810201E-1,-2.116570026E-1,6.063938475E-1
4.956733151E0,-1.745799929E-1,-1.926649958E-1,-2.845480144E-1,3.854420151E-1
4.961729459E0,-2.813549936E-1,4.304350019E-1,-3.472499922E-2,5.154034816E-1
4.966725995E0,-2.791599929E-2,4.966959953E-1,1.966460049E-1,5.349353849E-1
4.971722377E0,2.638469934E-1,-5.977699906E-2,1.236030012E-1,2.974327277E-1
4.976718914E0,2.036000043E-1,-5.384140015E-1,-1.495539993E-1,5.947343923E-1
4.981715525E0,-1.103700027E-1,-3.120810091E-1,-3.015890121E-1,4.478080236E-1
4.986711835E0,-2.850070000E-1,3.336539865E-1,-9.697999805E-2,4.493985900E-1
4.991708218E0,-8.618500084E-2,5.541629791E-1,1.562020034E-1,5.821713903E-1
4.996704755E0,2.272139937E-1,7.408499718E-2,1.572809964E-1,2.860980559E-1
5.001701141E0,2.443879992E-1,-4.949240088E-1,-9.699700028E-2,5.604316968E-1
5.006697669E0,-5.142400041E-2,-4.019869864E-1,-3.043209910E-1,5.068029505E-1
5.011694056E0,-2.911039889E-1,2.108280063E-1,-1.474220008E-1,3.884883871E-1
5.016690387E0,-1.490260065E-1,5.686799884E-1,1.204850003E-1,6.001019206E-1
5.021686924E0,1.840240061E-1,1.925449967E-1,1.886180043E-1,3.263666070E-1
5.026683552E0,2.812350094E-1,-4.319599867E-1,-4.195100069E-2,5.171483801E-1
5.031679862E0,1.831099950E-2,-4.715540111E-1,-2.806470096E-1,5.490548443E-1
5.036676246E0,-2.728120089E-1,8.253200352E-2,-1.883050054E-1,3.416089853E-1
5.041672798E0,-1.848500073E-1,5.521600246E-1,7.756499946E-2,5.874236522E-1
5.046669185E0,1.608369946E-1,2.540540099E-1,1.912429929E-1,3.563507558E-1
5.051665721E0,2.888410091E-1,-4.066489935E-1,-5.380899832E-2,5.016851012E-1
5.056662108E0,-1.207889989E-1,-2.353570014E-1,-2.662380040E-1,3.753206298E-1
5.061658644E0,-2.229930013E-1,2.598690093E-1,-1.880099997E-2,3.429449784E-1
5.066655031E0,2.224339992E-1,-1.589200087E-2,6.698899716E-2,2.328453681E-1
5.071651338E0,-7.154200226E-2,-3.385299817E-2,-1.176270023E-1,1.417758627E-1
5.076647870E0,-8.031999692E-3,4.133500159E-2,-3.841700032E-2,5.699966043E-2
5.081644257E0,1.667599939E-2,-3.990000114E-4,-3.612099960E-2,3.978661545E-2
5.086640855E0,-1.569600031E-2,1.171499956E-2,-7.683599740E-2,7.929297660E-2
5.091637393E0,2.148500085E-2,3.745999886E-3,-1.219800021E-2,2.498857711E-2
5.096633703E0,-7.586299628E-2,3.199100122E-2,-9.363999963E-2,1.246878819E-1
5.101630088E0,1.463139951E-1,-5.180300027E-2,-1.938699931E-2,1.564199212E-1
5.106626624E0,-1.492159963E-1,6.513000280E-2,-2.663699910E-2,1.649753331E-1
5.111623011E0,-6.535000168E-3,9.238000028E-3,-1.247629970E-1,1.252751065E-1
5.116619557E0,1.762879938E-1,-5.803899840E-2,1.410599984E-2,1.861315699E-1
5.121615944E0,-1.029779986E-1,3.549199924E-2,6.827999838E-3,1.091364823E-1
5.126612480E0,-1.252679974E-1,5.378400162E-2,-1.200290024E-1,1.816363164E-1
5.131608867E0,1.237500012E-1,-2.716300078E-2,-1.008109972E-1,1.619096926E-1
5.136605165E0,1.373690069E-1,-4.107800126E-2,9.238000028E-3,1.436766748E-1
5.141601778E0,-6.446299702E-2,1.750300080E-2,3.070000000E-2,7.351410084E-2
5.146598308E0,-1.436139941E-1,4.446500167E-2,-7.223600149E-2,1.667937517E-1
5.151594617E0,-1.357799955E-2,2.146600001E-2,-1.415839940E-1,1.438442859E-1
5.156591002E0,1.013059989E-1,-2.061099932E-2,-9.849199653E-2,1.427879269E-1
5.161587542E0,5.992700160E-2,-2.084200084E-2,4.395999946E-3,6.359999477E-2
5.166583929E0,-3.616600111E-2,2.391000045E-3,3.788499907E-2,5.243061769E-2
5.171580466E0,-6.725899875E-2,1.376200002E-2,-1.955500059E-2,7.138321655E-2
5.176576848E0,-2.157700062E-2,7.753000129E-3,-9.133899957E-2,9.417265425E-2
5.181573385E0,2.551100031E-2,-9.316000156E-3,-1.008990034E-1,1.044902287E-1
5.186569694E0,2.847100049E-2,-1.281100046E-2,-5.060999840E-2,5.946504469E-2
5.191566308E0,2.594999969E-3,-4.379999824E-3,-9.902000427E-3,1.113409340E-2
5.196562617E0,-1.642699912E-2,1.508300006E-2,-1.946699992E-2,2.960248768E-2
5.201559011E0,-1.257499959E-2,1.614700072E-2,-5.779200047E-2,6.130882127E-2
5.206555548E0,2.557999920E-3,7.848000154E-3,-6.978700310E-2,7.027346776E-2
5.211552163E0,1.880300045E-2,2.790000057E-3,-4.825399816E-2,5.186313975E-2
5.216548459E0,1.946599968E-2,-1.991000026E-3,-3.391499817E-2,3.915502938E-2
5.221544843E0,1.796899922E-2,5.729999975E-4,-4.830100015E-2,5.153833406E-2
5.226541370E0,2.461000113E-3,5.619999720E-4,-6.747200340E-2,6.751920918E-2
5.231537756E0,-2.111000009E-3,3.101000097E-3,-6.267599761E-2,6.278816130E-2
5.236534308E0,-4.213000182E-3,3.116999986E-3,-3.872799873E-2,3.908097933E-2
5.241530694E0,-1.844999939E-2,5.699999747E-4,-1.718300022E-2,2.521870088E-2
5.246527231E0,-9.953999892E-3,-1.811999944E-3,-3.392300010E-2,3.539965245E-2
5.251523618E0,5.229999777E-3,-1.658000052E-3,-6.024099886E-2,6.049032820E-2
5.256519925E0,5.094000138E-3,3.342000069E-3,-6.262999773E-2,6.292562608E-2
5.261516462E0,-2.100999933E-3,3.232999938E-3,-4.587399960E-2,4.603575054E-2
5.266512857E0,-8.805000223E-3,-1.698000007E-3,-2.910999954E-2,3.045986385E-2
5.271509394E0,-7.984000258E-3,-1.462999964E-3,-3.387900069E-2,3.483778577E-2
5.276505785E0,-4.939000122E-3,3.554000054E-3,-5.301599950E-2,5.336404071E-2
5.281502322E0,2.558999928E-3,3.401000053E-3,-5.780399963E-2,5.796048357E-2
5.286498709E0,4.734999966E-3,5.772999953E-3,-4.344300181E-2,4.407995190E-2
5.291495235E0,2.122000093E-3,7.801999804E-3,-3.388199955E-2,3.483337450E-2
5.296491622E0,6.905999966E-3,-5.099999908E-5,-3.869000077E-2,3.930154700E-2
5.301488158E0,4.102999810E-3,-9.612999856E-3,-4.827399924E-2,4.939254374E-2
5.306484473E0,-3.342000069E-3,-6.250999868E-3,-5.064300075E-2,5.113665504E-2
5.311480855E0,-6.689999718E-4,-3.069000086E-3,-4.103599861E-2,4.115603850E-2
5.316477413E0,6.548999809E-3,-5.078000017E-3,-3.384099901E-2,3.484090551E-2
5.321473800E0,3.561000107E-3,2.642000094E-3,-3.622899950E-2,3.649933274E-2
5.326470327E0,-3.849999979E-3,1.210100017E-2,-4.581300169E-2,4.754038104E-2
5.331466714E0,6.147000007E-3,4.013999831E-3,-5.062099919E-2,5.115059494E-2
5.336463250E0,5.717999768E-3,3.814999945E-3,-5.063600093E-2,5.110043382E-2
5.341459652E0,-1.856000046E-3,6.027000025E-3,-4.825399816E-2,4.866433811E-2
5.346455959E0,7.919999771E-4,3.150000004E-3,-4.108100012E-2,4.120920206E-2
5.351452573E0,7.029999979E-4,-4.284999799E-3,-4.348300025E-2,4.369927623E-2
5.356449121E0,3.123000031E-3,5.681999959E-3,-5.065400153E-2,5.106727058E-2
5.361445431E0,2.950000111E-3,1.012900006E-2,-5.784999952E-2,5.880409499E-2
5.366441816E0,2.907000016E-3,7.133999839E-3,-4.110899940E-2,4.182456736E-2
5.371438352E0,5.133999977E-3,-6.430000067E-4,-2.676399983E-2,2.725955047E-2
5.376434734E0,2.257999964E-3,-7.790999953E-3,-3.634899855E-2,3.724309251E-2
5.381431270E0,-3.570000117E-4,-7.013999857E-3,-5.069300160E-2,5.117718294E-2
5.386427657E0,-5.020000041E-3,3.311000066E-3,-6.024400145E-2,6.054339627E-2
5.391424284E0,3.079999879E-4,-1.588999992E-3,-4.826999828E-2,4.829712744E-2
5.396420594E0,5.162000190E-3,-6.101000123E-3,-3.868300095E-2,3.949991153E-2
5.401417125E0,6.000000212E-6,-7.759999717E-4,-4.825099930E-2,4.825723931E-2
5.406413435E0,-2.298000036E-3,-5.670000101E-4,-5.063800141E-2,5.069328832E-2
5.411409818E0,-2.004999900E-3,6.810000166E-3,-5.062299967E-2,5.111833548E-2
5.416406655E0,2.946000081E-3,8.766000159E-3,-4.824100062E-2,4.911940366E-2
5.421402965E0,5.071999971E-3,5.762000103E-3,-3.868800029E-2,3.944220069E-2
5.426399267E0,4.712999798E-3,-1.796999946E-3,-3.870499879E-2,3.903227520E-2
5.431395650E0,1.993000042E-3,-1.527999993E-3,-5.067399889E-2,5.073619021E-2
5.436392260E0,-5.264000036E-3,8.325999603E-3,-5.066600069E-2,5.161468388E-2
5.441388799E0,1.720000000E-4,1.254799962E-2,-4.588599876E-2,4.757107062E-2
5.446385109E0,-2.146000043E-3,4.317000043E-3,-4.351999983E-2,4.378621005E-2
5.451381425E0,-1.979999943E-3,-3.212000011E-3,-4.831599817E-2,4.846310992E-2
5.456377808E0,5.359999835E-3,-2.900999971E-3,-5.548800156E-2,5.582171366E-2
5.461374423E0,-4.575000145E-3,2.295000013E-3,-5.787499994E-2,5.810088872E-2
5.466370962E0,-4.075999837E-3,4.761999939E-3,-4.828799888E-2,4.869313354E-2
5.471367271E0,1.154999947E-3,-2.950000053E-4,-4.110899940E-2,4.112627970E-2
5.476363651E0,-6.043000147E-3,-2.543000039E-3,-3.870699927E-2,3.925833023E-2
5.481360188E0,-1.033800002E-2,1.829999965E-4,-4.587300122E-2,4.702382347E-2
5.486356579E0,-4.676000215E-3,2.695000032E-3,-5.303699896E-2,5.331089252E-2
5.491353116E0,3.008000087E-3,5.009999964E-3,-4.345500097E-2,4.384615460E-2
5.496349497E0,7.625000086E-3,4.604000133E-3,-4.107699916E-2,4.203162266E-2
5.501346034E0,6.945999805E-3,4.331000149E-3,-4.349099845E-2,4.425462034E-2
5.506342420E0,1.644999953E-3,-6.990000256E-4,-4.590300098E-2,4.593778537E-2
5.511338938E0,-3.194000106E-3,-2.898999956E-3,-4.589600116E-2,4.609825116E-2
5.516335248E0,-5.224999972E-3,2.271000063E-3,-4.587699845E-2,4.622939599E-2
5.521331875E0,-4.685999826E-3,2.209000057E-3,-4.347699881E-2,4.378456007E-2
5.526328262E0,5.274999887E-3,-5.034999922E-3,-4.586600140E-2,4.644208148E-2
5.531324569E0,2.306000097E-3,-9.359999560E-3,-4.825500026E-2,4.920845739E-2
5.536321121E0,-3.000000142E-4,-1.336000045E-3,-5.541700125E-2,5.543391492E-2
5.541317736E0,7.009999827E-3,8.619000204E-3,-5.540199950E-2,5.650494501E-2
5.546314055E0,4.116000142E-3,5.642999895E-3,-5.542699993E-2,5.586534906E-2
5.551310439E0,3.865000093E-3,2.923999913E-3,-5.304700136E-2,5.326792989E-2
5.556306962E0,5.923000164E-3,7.509999909E-3,-5.066499859E-2,5.155990799E-2
5.561303349E0,5.510000046E-3,6.907000206E-3,-5.787200108E-2,5.854259357E-2
5.566299895E0,3.499999875E-4,-3.095000051E-3,-5.071000010E-2,5.080556697E-2
5.571296282E0,-4.375000019E-3,-9.863999672E-3,-4.111799970E-2,4.251034009E-2
5.576292818E0,-3.920000046E-3,-4.106999841E-3,-3.868800029E-2,3.910236840E-2
5.581289185E0,-8.295999840E-3,5.834000185E-3,-4.585300013E-2,4.696122648E-2
5.586285721E0,-7.493999787E-3,1.015099976E-2,-5.064300075E-2,5.219115207E-2
5.591282031E0,3.250000009E-4,2.242000075E-3,-4.825900123E-2,4.831214535E-2
5.596278419E0,2.784000011E-3,-4.991999827E-3,-4.107899964E-2,4.147475051E-2
5.601274957E0,-7.052000146E-3,-2.047999995E-3,-3.866999969E-2,3.936107069E-2
5.606271354E0,-6.471000146E-3,7.714000065E-3,-4.583999887E-2,4.693277252E-2
5.611267890E0,3.751999931E-3,9.475000203E-3,-5.063600093E-2,5.165130901E-2
5.616264277E0,5.921000149E-3,-7.680000272E-4,-5.066100135E-2,5.101161755E-2
5.621260585E0,7.799000014E-3,-5.559999845E-4,-4.587300122E-2,4.653456541E-2
5.626257178E0,4.825000186E-3,2.019000007E-3,-4.587800056E-2,4.617518731E-2
5.631253488E0,-2.870000026E-4,1.978999935E-3,-4.827899858E-2,4.832039439E-2
5.636250024E0,-1.690000063E-4,1.949000056E-3,-4.588200152E-2,4.592368916E-2
5.641246411E0,2.223999938E-3,4.308999982E-3,-4.109499976E-2,4.138009983E-2
5.646242947E0,-5.061999895E-3,4.058999941E-3,-3.631699830E-2,3.689205455E-2
5.651239358E0,7.524000015E-3,-3.467000090E-3,-3.631699830E-2,3.724989975E-2
5.656235894E0,1.652799919E-2,-3.164000111E-3,-4.349900037E-2,4.664063344E-2
5.661232281E0,1.727000065E-2,-4.710000067E-4,-3.393900022E-2,3.808320495E-2
5.666228812E0,-6.217000075E-3,2.069999930E-3,-1.960000023E-2,2.066630104E-2
5.671225199E0,-7.058800012E-2,2.818899974E-2,-5.551600084E-2,9.412391734E-2
5.676221740E0,-3.504300117E-2,2.102199942E-2,-1.249120012E-1,1.314265743E-1
5.681218127E0,1.609929949E-1,-5.208100006E-2,-6.501899660E-2,1.812695366E-1
5.686214664E0,1.039210036E-1,-5.197700113E-2,9.292100370E-2,1.487800275E-1
5.691210983E0,-2.487269938E-1,7.170999795E-2,-2.877000021E-3,2.588739430E-1
5.696207366E0,-4.794500023E-2,1.748999953E-2,-1.727319956E-1,1.801137569E-1
5.701203894E0,2.080020010E-1,-4.800000042E-2,-4.100200161E-2,2.173706434E-1
5.706200281E0,-1.017649993E-1,4.493800178E-2,-5.073099956E-2,1.222668124E-1
5.711196817E0,6.582599878E-2,-3.778799996E-2,-2.675100043E-2,8.047739484E-2
5.716193204E0,-5.000200123E-2,3.236899897E-2,-5.197999999E-3,5.979106476E-2
5.721189741E0,-2.589999931E-3,5.473999772E-3,-9.380500019E-2,9.400027039E-2
5.726186113E0,2.265000017E-3,-1.815999974E-3,-6.986699998E-2,6.992728915E-2
5.731182650E0,2.342800051E-2,-2.290800028E-2,-5.309699848E-2,6.239342059E-2
5.736178959E0,-1.210999954E-2,7.609999739E-4,-3.870100155E-2,4.055858394E-2
5.741175342E0,5.657000002E-3,5.497000180E-3,-2.192799933E-2,2.330355798E-2
5.746171894E0,2.720000036E-2,-2.852799930E-2,-1.009519994E-1,1.083743187E-1
5.751168281E0,-5.910100043E-2,5.083300173E-2,-3.386899829E-2,8.499430194E-2
5.756164809E0,1.425770074E-1,-8.489699662E-2,-4.348300025E-2,1.715414655E-1
5.761161195E0,-1.835329980E-1,8.292999864E-2,-6.021000072E-2,2.102070175E-1
5.766157732E0,1.502590030E-1,-5.560199916E-2,4.037699848E-2,1.652260643E-1
5.771154122E0,-2.983699925E-2,-6.074700132E-2,-1.272780001E-1,1.441531616E-1
5.776150659E0,-1.425099969E-1,1.482689977E-1,-3.130500019E-2,2.080211478E-1
5.781146969E0,2.580600083E-1,-1.466529965E-1,-2.750999993E-3,2.968326755E-1
5.786143573E0,-1.968979985E-1,1.413199957E-2,-1.463620067E-1,2.457445263E-1
5.791139883E0,-6.542199850E-2,1.737300009E-1,5.737400055E-2,1.943036979E-1
5.796136271E0,2.947460115E-1,-2.145649940E-1,-2.836999949E-3,3.645838676E-1
5.801132808E0,-2.235070020E-1,4.689000081E-3,-2.205410004E-1,3.140313671E-1
5.806129194E0,-1.063449979E-1,2.682619989E-1,5.748400092E-2,2.942416847E-1
5.811125736E0,3.268359900E-1,-2.045769989E-1,3.539599851E-2,3.872032923E-1
5.816122122E0,-1.145799980E-1,-1.658989936E-1,-2.398470044E-1,3.133331095E-1
5.821118659E0,-2.580749989E-1,3.446730077E-1,-1.416699961E-2,4.308165400E-1
5.826115065E0,2.714239955E-1,3.053000011E-2,1.432980001E-1,3.084434844E-1
5.831111372E0,1.557160020E-1,-3.841780126E-1,-1.755840033E-1,4.501888058E-1
5.836107914E0,-3.246299922E-1,1.066349968E-1,-2.082560062E-1,4.001577421E-1
5.841104300E0,-5.753200129E-2,3.948130012E-1,1.270760000E-1,4.187308764E-1
5.846100895E0,3.473109901E-1,-1.988659948E-1,6.629300117E-2,4.056690397E-1
5.851097204E0,1.682700031E-2,-3.977150023E-1,-2.592839897E-1,4.750668988E-1
5.856093760E0,-3.486190140E-1,2.264800072E-1,-1.528320014E-1,4.429289235E-1
5.861090147E0,-1.491000038E-2,4.012120068E-1,1.654309928E-1,4.342358759E-1
5.866086683E0,3.479599953E-1,-2.263949960E-1,5.669200048E-2,4.189807101E-1
5.871083061E0,4.603200033E-2,-4.419159889E-1,-2.544499934E-1,5.120092630E-1
5.876079597E0,-3.339430094E-1,1.597719938E-1,-1.742359996E-1,4.091493701E-1
5.881075907E0,-9.478399903E-2,4.838770032E-1,1.298130006E-1,5.098748629E-1
5.886072279E0,3.034090102E-1,-5.257499963E-2,1.191100031E-1,3.301641272E-1
5.891068818E0,1.610320061E-1,-5.079799891E-1,-1.900289953E-1,5.657614297E-1
5.896065229E0,-2.549090087E-1,-9.254600108E-2,-2.750189900E-1,3.862367278E-1
5.901061765E0,-2.304619998E-1,5.123400092E-1,3.446000069E-2,5.628432375E-1
5.906058152E0,1.741970032E-1,2.701149881E-1,2.153300047E-1,3.868768714E-1
5.911054688E0,3.033710122E-1,-4.016270041E-1,-3.936899826E-2,5.048644764E-1
5.916050998E0,-3.805699944E-2,-4.007329941E-1,-2.996999919E-1,5.018519233E-1
5.921047611E0,-3.172259927E-1,2.358720005E-1,-1.476339996E-1,4.219759814E-1
5.926043998E0,-1.010629982E-1,5.341899991E-1,1.418009996E-1,5.618542589E-1
5.931040534E0,2.711879909E-1,2.943000011E-2,1.501380056E-1,3.113687076E-1
5.936036829E0,2.225199938E-1,-5.238360167E-1,-1.423989981E-1,5.866828740E-1
5.941033212E0,-1.505389959E-1,-2.821559906E-1,-3.184629977E-1,4.513232469E-1
5.946029765E0,-2.978610098E-1,3.897620142E-1,-7.080399990E-2,4.956297159E-1
5.951026152E0,-2.381799929E-2,4.833329916E-1,1.822669953E-1,5.171066964E-1
5.956022668E0,2.940630019E-1,-1.007710025E-1,9.488999844E-2,3.250107011E-1
5.961019055E0,1.858569980E-1,-5.399429798E-1,-1.853909940E-1,6.003757705E-1
5.966015591E0,-1.817499995E-1,-2.128670067E-1,-3.062610030E-1,4.148990562E-1
5.971011897E0,-2.735649943E-1,4.313549995E-1,-4.439600185E-2,5.127142935E-1
5.976008510E0,1.296900027E-2,4.593240023E-1,2.061440051E-1,5.036289158E-1
5.981004897E0,2.920249999E-1,-1.442809999E-1,9.005700052E-2,3.379435912E-1
5.986001448E0,1.649470031E-1,-5.486320257E-1,-1.877149940E-1,6.028611220E-1
5.990997757E0,-1.913740039E-1,-1.895540059E-1,-2.845720053E-1,3.918366454E-1
5.995994121E0,-2.826099992E-1,4.525229931E-1,-3.713199869E-2,5.348123561E-1
6.000990659E0,2.068999922E-3,4.713970125E-1,1.965900064E-1,5.107514608E-1
6.005987055E0,2.891240120E-1,-1.237580031E-1,9.724500030E-2,3.291888937E-1
6.010983591E0,1.838410050E-1,-5.491269827E-1,-1.805839986E-1,6.065876184E-1
6.015979978E0,-1.619389951E-1,-2.355519980E-1,-3.014209867E-1,4.154077432E-1
6.020976506E0,-2.866410017E-1,4.154359996E-1,-6.345000118E-2,5.087003404E-1
6.025972892E0,-1.837700047E-2,5.068039894E-1,1.823389977E-1,5.389206880E-1
6.030969409E0,2.893649936E-1,-6.022199988E-2,1.116489992E-1,3.159498185E-1
6.035965718E0,2.079019994E-1,-5.435730219E-1,-1.567550004E-1,6.027163525E-1
6.040962332E0,-1.327739954E-1,-2.929030061E-1,-2.968150079E-1,4.376302706E-1
6.045958641E0,-2.886880040E-1,3.630900085E-1,-7.068700343E-2,4.692246481E-1
6.050955026E0,-7.039599866E-2,5.355749726E-1,1.824219972E-1,5.701525524E-1
6.055951559E0,2.489069998E-1,1.880500093E-2,1.428450048E-1,2.875987100E-1
6.060947945E0,2.331259996E-1,-5.191799998E-1,-1.304839998E-1,5.838849871E-1
6.065944482E0,-8.817499876E-2,-3.519960046E-1,-3.089770079E-1,4.765950157E-1
6.070940882E0,-2.934829891E-1,2.924880087E-1,-1.162540019E-1,4.303446213E-1
6.075937190E0,-1.009339988E-1,5.499719977E-1,1.466380060E-1,5.780653728E-1
6.080933817E0,2.304929942E-1,9.416899830E-2,1.621109992E-1,2.971107482E-1
6.085930356E0,2.592619956E-1,-4.884069860E-1,-9.700600058E-2,5.613985487E-1
6.090926666E0,-4.730400071E-2,-4.198650122E-1,-3.139429986E-1,5.263881679E-1
6.095923055E0,-3.015899956E-1,1.993709952E-1,-1.569920033E-1,3.941469374E-1
6.100919592E0,-1.537770033E-1,5.655180216E-1,1.157509983E-1,5.973744999E-1
6.105915978E0,1.868740022E-1,1.824550033E-1,1.743129939E-1,3.140011795E-1
6.110912515E0,2.767710090E-1,-4.363020062E-1,-6.101899967E-2,5.202739186E-1
6.115908906E0,7.029999979E-3,-4.610419869E-1,-2.925060093E-1,5.460484412E-1
6.120905443E0,-2.759029865E-1,1.089740023E-1,-1.810089946E-1,3.475083413E-1
6.125901758E0,-1.852979958E-1,5.619210005E-1,9.196700156E-2,5.987891844E-1
6.130898140E0,1.459089965E-1,2.749879956E-1,1.960429996E-1,3.678867906E-1
6.135894679E0,2.918089926E-1,-3.660250008E-1,-2.270299941E-2,4.686600213E-1
6.140891046E0,6.160699949E-2,-4.999409914E-1,-2.735649943E-1,5.732139421E-1
6.145887583E0,-2.522619963E-1,8.787999861E-3,-2.171179950E-1,3.329467937E-1
6.150883911E0,-2.280279994E-1,5.374879837E-1,5.134399980E-2,5.861111733E-1
6.155880525E0,8.550000191E-2,3.649759889E-1,2.057970017E-1,4.276331707E-1
6.160876911E0,3.011080027E-1,-2.738040090E-1,2.761900052E-2,4.079184646E-1
6.165873219E0,1.204309985E-1,-5.401210189E-1,-2.330839932E-1,6.004685573E-1
6.170869756E0,-2.129649967E-1,-1.145000011E-1,-2.604399920E-1,3.553777279E-1
6.175866152E0,-2.519980073E-1,4.873810112E-1,-6.018000189E-3,5.487070823E-1
6.180862689E0,3.005000018E-2,4.362669885E-1,1.916600019E-1,4.774572694E-1
6.185859089E0,2.861430049E-1,-1.727039963E-1,5.885599926E-2,3.393648748E-1
6.190855626E0,1.666080058E-1,-5.459020138E-1,-1.996880025E-1,6.046838302E-1
6.195852017E0,-1.707099974E-1,-2.085160017E-1,-2.797879875E-1,3.884612518E-1
6.200848554E0,-2.828350067E-1,4.232360125E-1,-3.710599989E-2,5.103931999E-1
6.205844864E0,-2.696599998E-2,4.901120067E-1,1.918919981E-1,5.270289206E-1
6.210841246E0,2.696210146E-1,-7.071200013E-2,9.731400013E-2,2.952383666E-1
6.215837785E0,2.067870051E-1,-5.364840031E-1,-1.686419994E-1,5.991795015E-1
6.220834171E0,-1.265120059E-1,-2.862350047E-1,-3.015210032E-1,4.345695352E-1
6.225830708E0,-2.997229993E-1,3.597309887E-1,-8.259300143E-2,4.754596350E-1
6.230827094E0,-7.585400343E-2,5.302140117E-1,1.777240038E-1,5.643284057E-1
6.235823631E0,2.508859932E-1,1.627499983E-2,1.477320045E-1,2.916048737E-1
6.240820018E0,2.371259928E-1,-5.167229772E-1,-1.279959977E-1,5.827644009E-1
6.245816534E0,-9.648899734E-2,-3.283239901E-1,-3.136770129E-1,4.642198160E-1
6.250812921E0,-3.034470081E-1,3.548119962E-1,-8.749099821E-2,4.750013833E-1
6.255809457E0,3.827900067E-2,3.652049899E-1,1.848199964E-1,4.110941469E-1
6.260805859E0,2.914200127E-1,-2.236739993E-1,-2.942000050E-3,3.673749272E-1
6.265802395E0,-1.714890003E-1,-6.349000335E-2,-1.895029992E-1,2.633454850E-1
6.270798705E0,-2.773600072E-2,1.125549972E-1,1.920500025E-2,1.175021071E-1
6.275795088E0,8.726800233E-2,-4.073699936E-2,-4.091599956E-2,1.046390289E-1
6.280791626E0,-5.682700127E-2,1.784900017E-2,-6.007999927E-2,8.460201648E-2
6.285787993E0,-2.310100012E-2,2.127600089E-2,-5.285999924E-2,6.148580275E-2
6.290784529E0,3.915499896E-2,-2.349399962E-2,-5.047899857E-2,6.806769614E-2
6.295780902E0,-4.344499856E-2,2.656199969E-2,-1.934600063E-2,5.447270388E-2
6.300777438E0,-2.247899957E-2,7.480999921E-3,-1.007530019E-1,1.035009090E-1
6.305773748E0,1.350349933E-1,-3.826199844E-2,1.419099979E-2,1.410667020E-1
6.310770115E0,-1.643210053E-1,6.543900073E-2,-6.012000144E-2,1.868102518E-1
6.315766653E0,3.491900116E-2,-7.065000013E-3,-1.270920038E-1,1.319910160E-1
6.320763040E0,1.614859998E-1,-4.648299888E-2,1.176699996E-2,1.684543250E-1
6.325759576E0,-1.189069971E-1,4.367399961E-2,1.166300010E-2,1.272097393E-1
6.330755954E0,-1.374530047E-1,4.689000174E-2,-1.151959971E-1,1.853702201E-1
6.335752490E0,1.077189967E-1,-2.389699966E-2,-1.079149991E-1,1.543376036E-1
6.340748800E0,1.420949996E-1,-4.057399929E-2,-2.469999890E-4,1.477744881E-1
6.345745187E0,-3.119700029E-2,3.626999911E-3,4.275500029E-2,5.305090014E-2
6.350741725E0,-1.253869981E-1,3.892499954E-2,-4.103799909E-2,1.375542520E-1
6.355738103E0,-4.061599821E-2,1.872600056E-2,-1.295610070E-1,1.370634048E-1
6.360734639E0,7.857199758E-2,-1.356699970E-2,-1.199510023E-1,1.440342502E-1
6.365731011E0,6.551700085E-2,-1.663799956E-2,-2.901599929E-2,7.356105386E-2
6.370727547E0,-1.405599993E-2,-3.248000052E-3,3.079699911E-2,3.400846648E-2
6.375723934E0,-4.442099854E-2,1.111999992E-2,-1.228599995E-2,4.741123606E-2
6.380720242E0,-2.204599977E-2,7.714000065E-3,-8.648400009E-2,8.958244345E-2
6.385716855E0,2.028900012E-2,2.605000045E-3,-1.008339971E-1,1.028879222E-1
6.390713379E0,3.077900037E-2,4.769999941E-4,-6.015000120E-2,6.756920184E-2
6.395709689E0,7.106000092E-3,6.120000035E-4,-1.947700046E-2,2.074182558E-2
6.400706074E0,-9.898000397E-3,4.180000105E-4,-2.188099921E-2,2.401922693E-2
6.405702687E0,-1.706999959E-3,7.530999836E-3,-5.538599938E-2,5.592171971E-2
6.410698997E0,5.617000163E-3,4.652000032E-3,-7.215700299E-2,7.252465012E-2
6.415695610E0,-4.629999865E-3,-2.269999968E-4,-4.104699939E-2,4.130792402E-2
6.420691920E0,-2.068999922E-3,2.410999965E-3,-2.188399993E-2,2.211341526E-2
6.425688457E0,5.241999868E-3,-2.615999896E-3,-4.104299843E-2,4.145901275E-2
6.430684843E0,2.688999986E-3,-2.372999908E-3,-6.737399846E-2,6.746938208E-2
6.435681399E0,4.939999781E-4,2.809999976E-3,-6.735800207E-2,6.741839940E-2
6.440678014E0,-1.129799988E-2,3.680000082E-4,-4.580900073E-2,4.718309839E-2
6.445674064E0,-1.274000015E-2,-4.315000027E-3,-2.424300089E-2,2.772453645E-2
6.450670677E0,2.566999989E-3,-1.579000033E-3,-3.379400074E-2,3.392811837E-2
6.455666987E0,6.996999960E-3,5.843000021E-3,-5.773299932E-2,5.844824949E-2
6.460663524E0,-6.830000202E-4,5.510000046E-3,-6.733000278E-2,6.755853658E-2
6.465660139E0,-5.084999837E-3,2.832999919E-3,-5.536200106E-2,5.566717411E-2
6.470656454E0,-1.942000003E-3,1.232699957E-2,-4.098699987E-2,4.284460807E-2
6.475652761E0,5.594999995E-3,1.139099989E-2,-3.861600161E-2,4.064793332E-2
6.480649389E0,-2.094000112E-3,5.741999950E-3,-5.062099919E-2,5.098863558E-2
6.485645775E0,4.689999914E-4,1.018499956E-2,-5.781000108E-2,5.870221803E-2
6.490642312E0,7.610999979E-3,4.792999942E-3,-5.304199830E-2,5.379919844E-2
6.495638627E0,2.163999947E-3,-2.530000056E-4,-4.587800056E-2,4.592970542E-2
6.500635009E0,4.461999983E-3,2.295000013E-3,-5.545099825E-2,5.567755091E-2
6.505631543E0,1.783999964E-3,2.155000111E-3,-6.024799868E-2,6.031291758E-2
6.510627929E0,1.736999955E-3,-2.748999977E-3,-4.349299893E-2,4.361439127E-2
6.515624543E0,1.671000035E-3,-9.566999972E-3,-3.390600160E-2,3.526948644E-2
6.520620852E0,3.887000028E-3,-3.854000010E-3,-3.866900131E-2,3.905449715E-2
6.525617389E0,5.919000134E-3,-1.012000022E-3,-4.345000163E-2,4.386298380E-2
6.530613775E0,6.009999779E-4,1.492999960E-3,-4.584899917E-2,4.587723809E-2
6.535610075E0,5.319000222E-3,6.184999831E-3,-4.824899882E-2,4.893374984E-2
6.540606612E0,4.846999887E-3,3.402000060E-3,-4.587300122E-2,4.625364043E-2
6.545602998E0,-3.720000095E-4,-1.542999991E-3,-4.588500038E-2,4.591244377E-2
6.550599535E0,-5.144000053E-3,1.117000007E-3,-4.587699845E-2,4.617799706E-2
6.555595906E0,-4.716999829E-3,1.050999970E-3,-4.826699942E-2,4.850832837E-2
6.560592443E0,-4.323999863E-3,1.101000002E-3,-5.783500150E-2,5.800686661E-2
6.565588753E0,-3.845999949E-3,6.064000074E-3,-6.021500006E-2,6.064165272E-2
6.570585366E0,3.776000114E-3,-1.466999995E-3,-5.543199927E-2,5.557982375E-2
6.575581676E0,-1.233999967E-3,-8.364000358E-3,-5.542600155E-2,5.606711073E-2
6.580578060E0,-1.025000005E-3,-4.987000022E-3,-5.299799889E-2,5.324198232E-2
6.585574602E0,1.554999966E-3,-1.905999961E-3,-4.579100013E-2,4.585702295E-2
6.590570988E0,-3.277000040E-3,-1.504000043E-3,-4.578100145E-2,4.592277038E-2
6.595567530E0,-7.693999913E-3,-1.240000012E-3,-4.576599970E-2,4.642479902E-2
6.600563916E0,-6.943000015E-3,-3.392999992E-3,-4.574700072E-2,4.639510506E-2
6.605560224E0,-1.104899962E-2,-5.709999823E-4,-3.853899986E-2,4.009564744E-2
6.610556851E0,-5.510000046E-4,9.274999611E-3,-4.091000184E-2,4.195184704E-2
6.615553389E0,9.155999869E-3,3.812999930E-3,-4.571799934E-2,4.678147887E-2
6.620549768E0,1.172999968E-3,3.724999959E-3,-4.573300108E-2,4.589944381E-2
6.625546075E0,3.452999983E-3,1.072300039E-2,-4.813500121E-2,4.943565806E-2
6.630542612E0,5.644000135E-3,2.655999968E-3,-5.774199963E-2,5.807794413E-2
6.635539002E0,5.369999912E-3,-7.085999940E-3,-5.775099993E-2,5.843138101E-2
6.640535539E0,7.513000164E-3,-1.521999948E-3,-4.815300182E-2,4.875934002E-2
6.645531940E0,4.565999843E-3,1.072099991E-2,-5.055100098E-2,5.187669895E-2
6.650528476E0,-5.305000115E-3,7.553000003E-3,-5.536799878E-2,5.613204187E-2
6.655524853E0,-4.745999817E-3,-2.512000035E-3,-5.776600167E-2,5.801504639E-2
6.660521389E0,5.530000199E-4,-2.127999905E-3,-5.056500062E-2,5.061277982E-2
6.665517699E0,6.019999855E-4,5.949999904E-4,-4.337200150E-2,4.338025983E-2
6.670514077E0,-6.440000143E-3,3.067000071E-3,-4.576199874E-2,4.631458323E-2
6.675510616E0,-1.058499981E-2,5.440000095E-4,-5.293700099E-2,5.398763035E-2
6.680507003E0,-4.786000121E-3,7.833000273E-3,-5.291699991E-2,5.370726738E-2
6.685503539E0,7.695999928E-3,4.918999970E-3,-4.813500121E-2,4.899391102E-2
6.690499926E0,9.523999877E-3,-2.544000046E-3,-3.857700154E-2,3.981662414E-2
6.695496481E0,3.994999919E-3,-2.312999917E-3,-4.576500133E-2,4.599723187E-2
6.700492791E0,8.530000225E-3,3.089999955E-4,-5.533799902E-2,5.599241484E-2
6.705489173E0,5.506000016E-3,-2.054000041E-3,-4.577200115E-2,4.614770895E-2
6.710485712E0,2.624999965E-3,6.500000018E-4,-4.098200053E-2,4.107112723E-2
6.715482099E0,7.166999858E-3,5.504999775E-3,-4.577200115E-2,4.665562130E-2
6.720478635E0,9.034999646E-3,2.772999927E-3,-4.818499833E-2,4.910310389E-2
6.725475022E0,-1.227000030E-3,9.859999642E-3,-5.298599973E-2,5.390956585E-2
6.730471573E0,-1.025000005E-3,6.670000032E-3,-4.821899906E-2,4.868892477E-2
6.735467883E0,8.732000366E-3,-5.836000200E-3,-5.062799901E-2,5.170590887E-2
6.740464265E0,1.036699954E-2,-2.897999948E-3,-4.822799936E-2,4.941470434E-2
6.745460804E0,-2.509000013E-3,4.571000114E-3,-3.626300022E-2,3.663597014E-2
6.750457191E0,-7.110000122E-3,4.184000194E-3,-4.824300110E-2,4.894328468E-2
6.755453746E0,6.699999794E-4,3.965000156E-3,-5.781599879E-2,5.795567136E-2
6.760450133E0,6.140000187E-4,3.789999988E-3,-5.064199865E-2,5.078733231E-2
6.765446669E0,3.050999949E-3,-1.175999991E-3,-4.585700110E-2,4.597342848E-2
6.770443070E0,4.809999955E-4,1.454000012E-3,-4.585200176E-2,4.587757123E-2
6.775439377E0,4.210000043E-4,1.464999979E-3,-4.585300013E-2,4.587832917E-2
6.780435914E0,5.259000231E-3,-9.180000052E-4,-4.824500158E-2,4.853946833E-2
6.785432316E0,1.110000012E-4,-6.980000180E-4,-5.303400010E-2,5.303870937E-2
6.790428929E0,-4.586999770E-3,4.406999797E-3,-5.062999949E-2,5.102802232E-2
6.795425219E0,-4.097000230E-3,6.674000062E-3,-3.865399957E-2,3.943931250E-2
6.800421755E0,1.014000038E-3,-9.640000062E-4,-3.866099939E-2,3.868630721E-2
6.805418133E0,8.989999769E-4,-7.639999967E-4,-5.062999949E-2,5.064374340E-2
6.810414669E0,-1.370999962E-3,1.391700003E-2,-5.779999867E-2,5.946765825E-2
6.815410979E0,-1.042000018E-3,8.202999830E-3,-5.064199865E-2,5.131263974E-2
6.820407596E0,3.930999897E-3,4.619999963E-4,-4.586600140E-2,4.603646694E-2
6.825403906E0,3.683000105E-3,-1.837000018E-3,-3.868399933E-2,3.890232465E-2
6.830400267E0,-1.445999951E-3,-6.351999938E-3,-5.065299943E-2,5.107019846E-2
6.835396803E0,-1.329999999E-3,1.626000041E-3,-6.259799749E-2,6.263323451E-2
6.840393190E0,3.576999996E-3,8.953000419E-3,-5.540800095E-2,5.624053444E-2
6.845389726E0,3.369000042E-3,1.323799975E-2,-4.824399948E-2,5.014058520E-2
6.850386113E0,-1.509999973E-3,2.768999897E-3,-4.588000104E-2,4.598828063E-2
6.855382649E0,-6.080000196E-3,-4.515999928E-3,-4.348599911E-2,4.414060235E-2
6.860379036E0,-7.969999686E-3,5.574999843E-3,-5.303800106E-2,5.392245427E-2
6.865375344E0,-2.500999952E-3,1.003700029E-2,-6.740199775E-2,6.819109675E-2
6.870371957E0,2.280000044E-4,4.679999780E-3,-6.262599677E-2,6.280103385E-2
6.875368277E0,5.107000005E-3,2.063000109E-3,-4.108399898E-2,4.145156680E-2
6.880364813E0,-3.500000093E-5,-4.910000134E-4,-3.870100155E-2,3.870413192E-2
6.885361200E0,-4.741000012E-3,-5.226999987E-3,-5.305999890E-2,5.352720891E-2
6.890357736E0,-1.842999947E-3,1.639999973E-4,-6.021700054E-2,6.024542057E-2
6.895354098E0,-1.470000017E-3,-1.968000084E-3,-5.780899897E-2,5.786116389E-2
6.900350406E0,3.654999891E-3,-1.529000001E-3,-4.821500182E-2,4.837750785E-2
6.905346961E0,1.041000010E-3,3.530000104E-3,-5.060200021E-2,5.073565814E-2
6.910343348E0,-1.092199981E-2,5.663999822E-3,-6.018900126E-2,6.143359705E-2
6.915339884E0,-2.688999986E-3,7.741999812E-3,-6.736200303E-2,6.785874103E-2
6.920336285E0,1.931199990E-2,-6.990999915E-3,-4.821300134E-2,5.240535200E-2
6.925332821E0,2.700099908E-2,-1.092899963E-2,-9.910999797E-3,3.076889503E-2
6.930329194E0,-3.596900031E-2,1.159800030E-2,-1.711199991E-2,4.148618005E-2
6.935325730E0,-1.025729999E-1,3.449499980E-2,-9.850399941E-2,1.463357893E-1
6.940322117E0,5.377700180E-2,-6.535000168E-3,-1.463000029E-1,1.560075736E-1
6.945318678E0,2.322469950E-1,-7.947299629E-2,9.302999824E-3,2.456443967E-1
6.950315064E0,-7.356800139E-2,2.548800036E-2,9.777099639E-2,1.249842259E-1
6.955311362E0,-2.141020000E-1,8.012600243E-2,-1.105289981E-1,2.539222363E-1
6.960307898E0,1.661159992E-1,-4.621100053E-2,-1.080359966E-1,2.034742203E-1
6.965304290E0,-2.555100061E-2,2.533300035E-2,-5.546500161E-2,6.611339458E-2
6.970300826E0,2.537200041E-2,-1.968099922E-2,-6.505200267E-2,7.254545600E-2
6.975297194E0,2.828999981E-2,-1.142999972E-3,4.270999879E-2,5.124231196E-2
6.980293731E0,-6.013099849E-2,8.120000362E-3,-6.267700344E-2,8.723576185E-2
6.985290117E0,1.130000019E-4,9.890000336E-3,-7.697699964E-2,7.760981477E-2
6.990286425E0,1.439000014E-2,-7.294000126E-3,-9.614799917E-2,9.749211397E-2
6.995282961E0,-2.999299951E-2,1.056800038E-2,-5.303899944E-2,6.184171822E-2
7.000279348E0,6.584300101E-2,-3.078100085E-2,2.120099962E-2,7.571164494E-2
7.005275884E0,-3.762099892E-2,2.612000098E-3,-7.936999947E-2,8.787353936E-2
7.010272290E0,3.951999824E-3,3.352899849E-2,-3.383599967E-2,4.779839868E-2
7.015268827E0,8.093299717E-2,-6.740800291E-2,-1.272870004E-1,1.652149187E-1
7.020265213E0,-1.728989929E-1,1.041890010E-1,-4.101299867E-2,2.059890185E-1
7.025261531E0,2.128109932E-1,-1.030360013E-1,4.515000060E-2,2.407144760E-1
7.030258144E0,-1.286520064E-1,8.368999697E-3,-1.081079990E-1,1.682519490E-1
7.035254439E0,-5.107000098E-2,1.226650029E-1,4.563000053E-3,1.329498737E-1
7.040250976E0,2.436479926E-1,-1.821990013E-1,-6.989199668E-2,3.121629568E-1
7.045247372E0,-2.557179928E-1,8.495700359E-2,-1.798570007E-1,3.239721053E-1
7.050243909E0,1.286999974E-2,1.476050019E-1,1.003940031E-1,1.789743818E-1
7.055240295E0,2.564010024E-1,-2.528890073E-1,-7.737999782E-3,3.602141040E-1
7.060236827E0,-2.683649957E-1,4.845900089E-2,-2.037519962E-1,3.404158070E-1
7.065233136E0,-5.657399818E-2,2.697559893E-1,6.702700257E-2,2.836574168E-1
7.070229519E0,3.435190022E-1,-2.414149940E-1,-7.799000014E-3,4.199372913E-1
7.075226043E0,-1.304990053E-1,-1.705729961E-1,-2.518360019E-1,3.309781099E-1
7.080222429E0,-2.700709999E-1,3.620049953E-1,2.139999997E-4,4.516481013E-1
7.085218977E0,2.581110001E-1,4.877899960E-2,1.696249992E-1,3.126872551E-1
7.090215363E0,1.794549972E-1,-4.153000116E-1,-1.516799927E-1,4.771635106E-1
7.095211871E0,-3.172009885E-1,3.495899960E-2,-2.441609949E-1,4.018123818E-1
7.100208180E0,-1.297120005E-1,4.420079887E-1,9.615299851E-2,4.705758858E-1
7.105204794E0,3.336600065E-1,-7.178799808E-2,1.287119985E-1,3.647592290E-1
7.110201099E0,1.242069975E-1,-4.634549916E-1,-2.067600042E-1,5.224630195E-1
7.115197483E0,-3.148710132E-1,5.587200075E-2,-2.319740057E-1,3.950662916E-1
7.120194020E0,-1.320009977E-1,4.824129939E-1,9.869699925E-2,5.097917788E-1
7.125190416E0,3.029319942E-1,3.503999906E-3,1.598740071E-1,3.425489298E-1
7.130186953E0,1.869730055E-1,-5.069079995E-1,-1.565880030E-1,5.625250461E-1
7.135183343E0,-2.479680032E-1,-1.229310036E-1,-2.823410034E-1,3.953689472E-1
7.140179651E0,-2.410780042E-1,4.965110123E-1,2.002600022E-2,5.523068261E-1
7.145176274E0,1.645399928E-1,2.675859928E-1,2.153259963E-1,3.808424313E-1
7.150172584E0,3.043070138E-1,-3.967610002E-1,-4.653500021E-2,5.021827915E-1
7.155169184E0,-4.418699816E-2,-3.914490044E-1,-3.092739880E-1,5.008345171E-1
7.160165493E0,-3.226960003E-1,2.445079982E-1,-1.332769990E-1,4.262389333E-1
7.165162030E0,-8.456899971E-2,5.181199908E-1,1.561460048E-1,5.477059571E-1
7.170158420E0,2.813670039E-1,1.234399993E-2,1.525329947E-1,3.202906176E-1
7.175154728E0,2.197670043E-1,-5.202270150E-1,-1.543429941E-1,5.854531947E-1
7.180151265E0,-1.578530073E-1,-2.762709856E-1,-3.280049860E-1,4.569797592E-1
7.185147656E0,-3.018980026E-1,3.855040073E-1,-6.598500162E-2,4.940746544E-1
7.190144270E0,-2.024200000E-2,4.890210032E-1,1.990740001E-1,5.283765113E-1
7.195140569E0,2.925220132E-1,-8.606400341E-2,1.116779968E-1,3.247277565E-1
7.200137106E0,1.772789955E-1,-5.337150097E-1,-1.758269966E-1,5.892322857E-1
7.205133468E0,-1.824010015E-1,-2.285860032E-1,-2.967039943E-1,4.165992636E-1
7.210130005E0,-2.814739943E-1,4.193609953E-1,-3.958199918E-2,5.066142403E-1
7.215126315E0,6.189999986E-4,4.840660095E-1,2.062049955E-1,5.261566163E-1
7.220122924E0,3.021459877E-1,-9.537900239E-2,1.164060012E-1,3.375495654E-1
7.225119234E0,1.980639994E-1,-5.399640203E-1,-1.782730073E-1,6.021393162E-1
7.230115618E0,-1.610299945E-1,-2.584249973E-1,-3.039599955E-1,4.302392558E-1
7.235112155E0,-3.001739979E-1,3.897910118E-1,-5.874599889E-2,4.954720520E-1
7.240108541E0,-4.273699969E-2,5.168840289E-1,1.919240057E-1,5.530193256E-1
7.245105077E0,2.695330083E-1,-2.931799926E-2,1.356160045E-1,3.031489540E-1
7.250101463E0,2.208839953E-1,-5.392850041E-1,-1.376319975E-1,5.987993168E-1
7.255098010E0,-1.017529964E-1,-3.345110118E-1,-3.064689934E-1,4.649457315E-1
7.260094397E0,-2.866060138E-1,3.059290051E-1,-1.065950021E-1,4.325483300E-1
7.265090933E0,-8.989600092E-2,5.454879999E-1,1.610379964E-1,5.758226162E-1
7.270087257E0,2.285979986E-1,8.290500194E-2,1.669310033E-1,2.949512573E-1
7.275083639E0,2.551339865E-1,-4.964399934E-1,-1.017429978E-1,5.673602521E-1
7.280080163E0,-3.921499848E-2,-4.057320058E-1,-3.138619959E-1,5.144566349E-1
7.285076549E0,-2.846359909E-1,2.075870037E-1,-1.497730017E-1,3.828079981E-1
7.290073086E0,-1.501879990E-1,5.682250261E-1,1.205300018E-1,5.999696632E-1
7.295069488E0,1.757850051E-1,2.042029947E-1,1.886589974E-1,3.289246849E-1
7.300066024E0,2.761940062E-1,-4.211800098E-1,-4.431499913E-2,5.056080981E-1
7.305062353E0,2.338000014E-2,-4.880140126E-1,-2.949999869E-1,5.707269865E-1
7.310058735E0,-2.681689858E-1,6.043399870E-2,-2.049989998E-1,3.429161167E-1
7.315055283E0,-2.068810016E-1,5.583680272E-1,7.050800323E-2,5.996215316E-1
7.320051669E0,1.117580011E-1,3.338389993E-1,2.081169933E-1,4.089633372E-1
7.325048192E0,2.962239981E-1,-3.023279905E-1,2.279200032E-2,4.238753899E-1
7.330044579E0,1.135689989E-1,-5.373610258E-1,-2.497909963E-1,6.033658355E-1
7.335041115E0,-2.239100039E-1,-9.248699993E-2,-2.603580058E-1,3.556343996E-1
7.340037420E0,-2.715579867E-1,5.027869940E-1,3.590000095E-3,5.714467513E-1
7.345033802E0,1.920099929E-2,4.528700113E-1,2.060399950E-1,4.979080287E-1
7.350030336E0,2.783629894E-1,-1.432140023E-1,8.038800210E-2,3.232003020E-1
7.355026722E0,1.690790057E-1,-5.502200127E-1,-1.925919950E-1,6.069773052E-1
7.360023259E0,-1.490859985E-1,-2.531189919E-1,-3.014349937E-1,4.209024999E-1
7.365019637E0,-2.772080004E-1,3.826499879E-1,-7.779199630E-2,4.788704245E-1
7.370016173E0,-5.758399889E-2,5.223219991E-1,1.704670042E-1,5.524447367E-1
7.375012497E0,2.510809898E-1,1.372000016E-2,1.452710032E-1,2.904024212E-1
7.380009110E0,2.375089973E-1,-5.094770193E-1,-1.184780002E-1,5.744687925E-1
7.385005492E0,-7.687500119E-2,-3.648639917E-1,-3.089810014E-1,4.842569127E-1
7.390001799E0,-2.951439917E-1,2.496220022E-1,-1.401759982E-1,4.111817485E-1
7.394998336E0,-1.359809935E-1,5.587170124E-1,1.300240010E-1,5.895436976E-1
7.399994723E0,1.887560040E-1,1.690769941E-1,1.838160008E-1,3.130561948E-1
7.404991259E0,2.784869969E-1,-4.390859902E-1,-5.867400020E-2,5.232534305E-1
7.409987666E0,1.349399984E-2,-4.731790125E-1,-2.925600111E-1,5.564816493E-1
7.414984202E0,-2.698999941E-1,8.602699637E-2,-1.954070032E-1,3.441373967E-1
7.419980589E0,-1.964190006E-1,5.602620244E-1,7.524999976E-2,5.984450871E-1
7.424977134E0,1.191250011E-1,3.163250089E-1,2.056750059E-1,3.956696668E-1
7.429973444E0,2.912060022E-1,-3.208679855E-1,8.415999822E-3,4.333913115E-1
7.434969822E0,8.981099725E-2,-5.304149985E-1,-2.473659962E-1,5.921114946E-1
7.439966360E0,-2.338239998E-1,-6.951200217E-2,-2.435709983E-1,3.447207747E-1
7.444962723E0,-2.424470037E-1,5.069199800E-1,1.792999916E-2,5.622009433E-1
7.449959259E0,4.816899821E-2,4.230439961E-1,2.083729953E-1,4.740314126E-1
7.454955646E0,2.834550142E-1,-1.871919930E-1,6.600400060E-2,3.460406268E-1
7.459952192E0,1.619729996E-1,-5.496119857E-1,-1.996880025E-1,6.067815799E-1
7.464948579E0,-1.651500016E-1,-2.094099969E-1,-2.821710110E-1,3.882622171E-1
7.469944887E0,-2.800360024E-1,4.249260128E-1,-4.905999824E-2,5.112623225E-1
7.474941438E0,-3.144299984E-2,5.084099770E-1,1.823350042E-1,5.410318111E-1
7.479937825E0,2.654229999E-1,-3.948999941E-2,1.260340065E-1,2.964682103E-1
7.484934361E0,2.195069939E-1,-5.366020203E-1,-1.400000006E-1,5.964269014E-1
7.489930748E0,-9.333100170E-2,-3.296479881E-1,-3.040539920E-1,4.580691018E-1
7.494927270E0,-2.933999896E-1,3.055639863E-1,-1.042070016E-1,4.362476393E-1
7.499923580E0,-1.034040004E-1,5.283960104E-1,1.562529951E-1,5.606333290E-1
7.504919963E0,2.690100074E-1,1.217800006E-2,1.478440017E-1,3.072011338E-1
7.509916496E0,1.869020015E-1,-4.535470009E-1,-1.422660053E-1,5.107610561E-1
7.514912883E0,-2.744829953E-1,-5.099999908E-5,-2.203180045E-1,3.519672434E-1
7.519909419E0,-2.119299956E-2,2.135639936E-1,7.215200365E-2,2.264169477E-1
7.524905796E0,2.036139965E-1,-1.038099974E-1,-1.696999930E-2,2.291793098E-1
7.529902332E0,-1.417839974E-1,2.714199945E-2,-9.598000348E-2,1.733538322E-1
7.534898632E0,4.527699947E-2,1.310000010E-2,-2.881399915E-2,5.524367141E-2
7.539895015E0,1.262299996E-2,-9.475000203E-3,-2.412199974E-2,2.882683868E-2
7.544891553E0,-6.261900067E-2,2.972099930E-2,-7.438799739E-2,1.016762076E-1
7.549888164E0,1.081010029E-1,-2.998000011E-2,-1.690799929E-2,1.134482599E-1
7.554884474E0,-1.098280028E-1,5.405500159E-2,-3.613299876E-2,1.276312148E-1
7.559880859E0,6.301300228E-2,-2.938500047E-2,-9.357099980E-2,1.165746487E-1
7.564877395E0,9.092000127E-2,-2.407700010E-2,4.289799929E-2,1.033749820E-1
7.569873782E0,-1.853179932E-1,6.146400049E-2,-7.688199729E-2,2.098366590E-1
7.574870313E0,5.908299983E-2,-8.268999867E-3,-1.031079963E-1,1.191236170E-1
7.579866700E0,1.619819999E-1,-4.296100140E-2,1.416299958E-2,1.681796851E-1
7.584863245E0,-9.940700233E-2,3.241899982E-2,2.362399921E-2,1.071953217E-1
7.589859632E0,-1.438010037E-1,4.854200035E-2,-9.844999760E-2,1.809073146E-1
7.594855940E0,6.356900185E-2,-5.667000078E-3,-1.318709999E-1,1.465028788E-1
7.599852486E0,1.380169988E-1,-3.801500052E-2,-2.417000011E-2,1.451827163E-1
7.604848873E0,-3.377000103E-3,-1.540600043E-2,6.193200126E-2,6.390869862E-2
7.609845409E0,-1.023619995E-1,3.103799932E-2,1.167200040E-2,1.075991261E-1
7.614841709E0,-5.123500153E-2,3.044500016E-2,-9.363900125E-2,1.109963331E-1
7.619838092E0,3.486400098E-2,-3.049999941E-3,-1.271560043E-1,1.318842314E-1
7.624834707E0,5.672600120E-2,-1.888100058E-2,-6.491000205E-2,8.824760485E-2
7.629831017E0,9.483000264E-3,-7.385000121E-3,1.648299955E-2,2.039987242E-2
7.634827553E0,-3.660900146E-2,2.585999900E-3,1.648800075E-2,4.023382348E-2
7.639823940E0,-2.671699971E-2,9.309000336E-3,-4.333899915E-2,5.175639485E-2
7.644820476E0,1.270000008E-3,1.342600025E-2,-9.121699631E-2,9.220851804E-2
7.649816786E0,1.286500040E-2,7.639999967E-4,-7.448499650E-2,7.559171009E-2
7.654813400E0,1.427800022E-2,-8.558999747E-3,-3.139799833E-2,3.553803689E-2
7.659809786E0,6.252999883E-3,-6.500000018E-4,-2.181299962E-2,2.270086915E-2
7.664806070E0,-5.884000100E-3,8.844000287E-3,-4.575899988E-2,4.697577960E-2
7.669802606E0,-7.577999961E-3,1.061400026E-2,-5.773900077E-2,5.919354099E-2
7.674798988E0,-7.031999994E-3,7.579999976E-3,-4.099100083E-2,4.227490476E-2
7.679795524E0,2.810999984E-3,-2.419000026E-3,-2.663400024E-2,2.689095110E-2
7.684791897E0,9.603999555E-3,-4.519999959E-3,-3.620800003E-2,3.773177008E-2
7.689788434E0,1.614000089E-2,3.055999987E-3,-6.014800072E-2,6.235078793E-2
7.694784820E0,7.887000218E-3,7.755000144E-3,-6.735099852E-2,6.825321825E-2
7.699781357E0,-4.435000010E-3,9.674999863E-3,-5.061100051E-2,5.171796806E-2
7.704777728E0,8.299999754E-4,1.808000030E-3,-2.668300085E-2,2.675706072E-2
7.709774265E0,6.099999882E-4,-5.442999769E-3,-2.908300050E-2,2.959424377E-2
7.714770574E0,4.119999940E-4,4.586999770E-3,-5.301399902E-2,5.321366744E-2
7.719766953E0,4.759999865E-4,9.135000408E-3,-6.259699911E-2,6.326182977E-2
7.724763492E0,6.510000094E-4,1.344999997E-3,-5.542999879E-2,5.545013608E-2
7.729759878E0,3.300999990E-3,-3.398000030E-3,-3.866399825E-2,3.895314834E-2
7.734756415E0,-6.374999881E-3,-2.990999958E-3,-3.147299960E-2,3.225114584E-2
7.739752724E0,-8.152999915E-3,-2.639000071E-3,-3.384599835E-2,3.491399910E-2
7.744749121E0,-3.020000004E-4,2.477000002E-3,-4.340099916E-2,4.347267488E-2
7.749745736E0,4.385999870E-3,4.788999911E-3,-5.537699908E-2,5.575646637E-2
7.754742046E0,3.899999894E-3,6.932999939E-3,-5.778599903E-2,5.833093666E-2
7.759738583E0,-3.510999959E-3,8.898000233E-3,-4.822500050E-2,4.916454212E-2
7.764734969E0,-5.408999976E-3,3.382999916E-3,-4.105899855E-2,4.155169469E-2
7.769731277E0,-2.366000088E-3,3.216000041E-3,-4.584199935E-2,4.601553561E-2
7.774727813E0,2.711999929E-3,5.468999967E-3,-5.302400142E-2,5.337424127E-2
7.779724443E0,2.470999956E-3,5.154000130E-3,-5.064199865E-2,5.096353191E-2
7.784720829E0,-1.420000044E-4,7.251999807E-3,-3.629000112E-2,3.700778090E-2
7.789717137E0,-2.551000100E-3,6.634000223E-3,-4.109799862E-2,4.170806937E-2
7.794713674E0,-4.538999870E-3,6.080999970E-3,-5.307900161E-2,5.361866738E-2
7.799710060E0,-1.550000045E-3,3.212000011E-3,-6.026599929E-2,6.037143459E-2
7.804706612E0,3.586000064E-3,7.130000158E-4,-6.026399881E-2,6.037480698E-2
7.809702998E0,8.890000172E-4,-3.965000156E-3,-5.308200046E-2,5.323730197E-2
7.814699535E0,3.202999942E-3,-3.471999895E-3,-4.828000069E-2,4.851053966E-2
7.819695844E0,6.239999784E-4,-2.927999943E-3,-5.305400118E-2,5.313840044E-2
7.824692458E0,-6.510999985E-3,2.263000002E-3,-5.543699861E-2,5.586389804E-2
7.829688768E0,3.727999981E-3,-1.659999980E-4,-4.824399948E-2,4.838810831E-2
7.834685152E0,1.107000047E-3,-4.800000228E-3,-3.866700083E-2,3.897951263E-2
7.839681697E0,-3.694999963E-3,-1.878999989E-3,-3.865100071E-2,3.887265776E-2
7.844678083E0,6.277999841E-3,5.578000098E-3,-3.863599896E-2,3.953818133E-2
7.849674620E0,8.210999891E-3,-1.965000061E-3,-4.344300181E-2,4.425580358E-2
7.854671006E0,7.592000067E-3,-8.851000108E-3,-4.823299870E-2,4.962258388E-2
7.859667543E0,4.639000166E-3,-7.950000465E-3,-4.821300134E-2,4.908376848E-2
7.864663859E0,-4.579999950E-4,-4.730999935E-3,-4.819300026E-2,4.842682519E-2
7.869660241E0,-7.507999893E-3,2.893999917E-3,-5.056999996E-2,5.120615387E-2
7.874656780E0,-4.476999864E-3,7.476000115E-3,-5.535599962E-2,5.603767304E-2
7.879653166E0,5.588000175E-3,-8.399999933E-5,-5.536099896E-2,5.564236702E-2
7.884649703E0,2.812999999E-3,-9.491000324E-3,-4.338900000E-2,4.450390294E-2
7.889646099E0,7.443000097E-3,-1.364000025E-3,-4.096800089E-2,4.166096306E-2
7.894642407E0,9.173999541E-3,6.058999803E-3,-4.815400019E-2,4.939313192E-2
7.899638958E0,-3.595999908E-3,3.286000108E-3,-4.578400031E-2,4.604241193E-2
7.904635344E0,-8.089999668E-3,3.137999913E-3,-3.860099986E-2,3.956428097E-2
