"Time (s)","Linear Acceleration x (m/s^2)","Linear Acceleration y (m/s^2)","Linear Acceleration z (m/s^2)","Absolute acceleration (m/s^2)"
6.920436000E-3,-2.025229931E-1,3.357800096E-2,1.199700952E0,1.217138208E0
1.191602100E-2,4.436230063E-1,-1.545650065E-1,-1.043379977E-1,4.812256547E-1
1.691271300E-2,2.557099983E-2,2.978230119E-1,-6.660289764E-1,7.300322047E-1
2.190932900E-2,-2.817850113E-1,6.569200009E-2,1.476255059E0,1.504342791E0
2.690586700E-2,-1.579670012E-1,-5.172960162E-1,2.670799971E0,2.725017656E0
3.190248800E-2,-1.174670011E-1,-4.870789945E-1,5.260959864E-1,7.265132002E-1
3.689910300E-2,-3.229109943E-1,1.112900004E-1,9.384729862E-1,9.986934065E-1
4.189579300E-2,2.024400048E-2,2.667219937E-1,1.128342032E0,1.159614670E0
4.689238700E-2,5.015339851E-1,-2.276449949E-1,-4.686189890E-1,7.231613504E-1
5.188892500E-2,5.628889799E-1,-6.761000305E-2,-1.881950021E0,1.965490014E0
5.688553900E-2,2.545700036E-2,5.116080046E-1,-3.957969904E0,3.990979400E0
6.188216800E-2,-8.156250119E-1,5.267410278E-1,-1.579105020E0,1.853718677E0
6.687878300E-2,-8.117719889E-1,2.283619940E-1,2.211600065E0,2.366917365E0
7.187547100E-2,-9.480999783E-3,-4.032289982E-1,8.518779874E-1,9.425389221E-1
7.687201100E-2,5.436869860E-1,-5.928469896E-1,-1.365559995E-1,8.159109221E-1
8.186870200E-2,4.643400013E-1,6.074000150E-3,5.811100081E-2,4.680015157E-1
8.686531900E-2,1.845259964E-1,3.628169894E-1,-5.506010056E-1,6.847243814E-1
9.186193400E-2,-9.110400081E-2,4.262499884E-2,7.314860225E-1,7.383688987E-1
9.685846900E-2,-2.246769965E-1,-3.181770146E-1,1.947551966E0,1.986120597E0
1.018550820E-1,-4.435800016E-2,-2.834410071E-1,-6.258090138E-1,6.884354425E-1
1.068516980E-1,-7.879000157E-3,1.267859936E-1,-2.796473980E0,2.799357692E0
1.118483130E-1,-2.420980036E-1,5.037739873E-1,-1.500823021E0,1.601520969E0
1.168450050E-1,-2.206790000E-1,3.096190095E-1,8.090220094E-1,8.939126153E-1
1.218416220E-1,1.514959931E-1,-2.335579991E-1,1.189378023E0,1.221523826E0
1.268381600E-1,3.873820007E-1,-6.099060178E-1,1.050330028E-1,7.301247131E-1
1.318347500E-1,2.206719965E-1,-4.343270063E-1,4.365620017E-1,6.541578248E-1
1.368313650E-1,-1.411519945E-1,3.099099919E-2,8.802250028E-1,8.920091833E-1
1.418279800E-1,-2.826209962E-1,3.510009944E-1,3.386229873E-1,5.636859526E-1
1.468245960E-1,-9.834700078E-2,4.435279965E-1,-8.354740143E-1,9.510026524E-1
1.518212110E-1,1.663360000E-1,9.376800060E-2,-1.813182950E0,1.823209399E0
1.568179040E-1,1.650940031E-1,-3.467459977E-1,-4.366390109E-1,5.815001656E-1
1.618145210E-1,-1.655679941E-1,-3.326520026E-1,1.003118038E0,1.069727028E0
1.668110590E-1,-2.251330018E-1,8.556800336E-2,4.677099884E-1,5.260792572E-1
1.718076730E-1,-1.764000044E-3,3.354789913E-1,2.185290009E-1,4.003800563E-1
1.768042880E-1,1.929920018E-1,1.294640005E-1,-6.748799980E-2,2.419947733E-1
1.818009090E-1,2.969979942E-1,-1.818950027E-1,-7.168800235E-1,7.970009841E-1
1.867975240E-1,1.480389982E-1,-3.432869911E-1,-1.611050069E-1,4.070827023E-1
1.917941390E-1,-2.090130001E-1,-2.143300027E-1,3.353810012E-1,4.495600074E-1
1.967907550E-1,-3.831889927E-1,1.667589992E-1,-8.278899640E-2,4.260239264E-1
2.017873710E-1,-1.964409947E-1,4.706580043E-1,-2.479709983E-1,5.670957921E-1
2.067839870E-1,1.314329952E-1,1.699559987E-1,-2.083089948E-1,2.992529215E-1
2.117806080E-1,3.357949853E-1,-3.456949890E-1,1.046940014E-1,4.931775861E-1
2.167772230E-1,2.667559981E-1,-4.788559973E-1,3.158180118E-1,6.326158750E-1
2.217738520E-1,-2.177199908E-2,-1.925889999E-1,3.186799958E-2,1.964182074E-1
2.267704670E-1,-3.044930100E-1,2.659829855E-1,-3.434019983E-1,5.304600590E-1
2.317670770E-1,-3.289769888E-1,5.027390122E-1,-4.011459947E-1,7.224198797E-1
2.367636920E-1,-7.103999704E-2,2.375919968E-1,-6.915699691E-2,2.574477196E-1
2.417603070E-1,2.226500064E-1,-2.752369940E-1,3.038130105E-1,4.665091356E-1
2.467569430E-1,2.895379961E-1,-4.970200062E-1,2.010660022E-1,6.093346166E-1
2.517535590E-1,1.201559976E-1,-2.017849982E-1,-1.739349961E-1,2.922465263E-1
2.567501750E-1,-1.247550026E-1,2.523699999E-1,-3.051080108E-1,4.151449455E-1
2.617467860E-1,-2.593539953E-1,4.266630113E-1,-1.308320016E-1,5.161616343E-1
2.667434010E-1,-1.448660046E-1,2.274460047E-1,1.485449970E-1,3.078692263E-1
2.717400060E-1,1.295720041E-1,-1.816390008E-1,9.786599874E-2,2.436378143E-1
2.767366210E-1,2.582029998E-1,-4.406079948E-1,-2.084300071E-1,5.515861329E-1
2.817332360E-1,1.196649969E-1,-2.544189990E-1,-2.650009990E-1,3.863602826E-1
2.867298510E-1,-1.096139997E-1,1.688019931E-1,-5.598799884E-2,2.089114593E-1
2.917264660E-1,-2.225420028E-1,3.879669905E-1,1.184279993E-1,4.626753935E-1
2.967230820E-1,-9.950199723E-2,2.311600000E-1,9.367199987E-2,2.685331201E-1
3.017194780E-1,1.295509934E-1,-1.388570070E-1,-7.439900190E-2,2.039606329E-1
3.067163220E-1,2.164199948E-1,-3.964920044E-1,-1.771939993E-1,4.852228736E-1
3.117127090E-1,6.746000051E-2,-2.765800059E-1,-1.236670017E-1,3.103882708E-1
3.167095530E-1,-1.505530030E-1,1.384869963E-1,-3.666099906E-2,2.078193535E-1
3.217061750E-1,-2.080750018E-1,4.209010005E-1,2.057800069E-2,4.699748001E-1
3.267027900E-1,-4.602599889E-2,2.694959939E-1,2.682299912E-2,2.747106779E-1
3.316994050E-1,1.657579988E-1,-1.466159970E-1,4.614999983E-3,2.213442183E-1
3.366957900E-1,2.228080034E-1,-4.048480093E-1,-4.794299975E-2,4.645899787E-1
3.416926340E-1,6.506399810E-2,-2.599779963E-1,-1.620330065E-1,3.131718021E-1
3.466892430E-1,-1.666380018E-1,1.558550000E-1,-2.115440071E-1,3.111428476E-1
3.516856270E-1,-2.345869988E-1,4.331980050E-1,-8.963999897E-2,5.007263733E-1
3.566822410E-1,-5.922700092E-2,2.531189919E-1,1.033969969E-1,2.797641875E-1
3.616788650E-1,1.805460006E-1,-1.946559995E-1,1.506679952E-1,3.052681793E-1
3.666754800E-1,2.475990057E-1,-4.329929948E-1,-2.153700031E-2,4.992514833E-1
3.716721110E-1,6.004700065E-2,-2.241690010E-1,-2.145829946E-1,3.160747457E-1
3.766687260E-1,-2.030020058E-1,2.053000033E-1,-2.210700065E-1,3.636342304E-1
3.816653510E-1,-2.597239912E-1,4.278590083E-1,-4.418100044E-2,5.024657634E-1
3.866619660E-1,-4.710400105E-2,2.098470032E-1,1.201879978E-1,2.463731042E-1
3.916585810E-1,2.168830037E-1,-2.292860001E-1,7.655999810E-2,3.247641305E-1
3.966551880E-1,2.587220073E-1,-4.304270148E-1,-1.003929973E-1,5.121359644E-1
4.016518040E-1,4.157600179E-2,-1.754850000E-1,-1.832789928E-1,2.571278638E-1
4.066484190E-1,-2.122049928E-1,2.566699982E-1,-1.180659980E-1,3.533412328E-1
4.116450350E-1,-2.440489978E-1,4.239169955E-1,1.184999943E-3,4.891491967E-1
4.166416500E-1,-3.715000115E-3,1.365209967E-1,6.259799749E-2,1.502341275E-1
4.216382650E-1,2.833789885E-1,-3.392010033E-1,-7.222000044E-3,4.420555724E-1
4.266348800E-1,1.255529970E-1,-2.812680006E-1,-1.695680022E-1,3.516085189E-1
4.316314910E-1,-2.777380049E-1,2.414720058E-1,-1.185870022E-1,3.866652377E-1
4.366281060E-1,5.748099834E-2,1.131479964E-1,9.186299890E-2,1.566695402E-1
4.416247110E-1,1.512670070E-1,-1.362439990E-1,-9.295800328E-2,2.237975090E-1
4.466213270E-1,-1.346130073E-1,6.733799726E-2,-1.143610030E-1,1.890330834E-1
4.516179430E-1,5.914400145E-2,2.229999984E-3,-8.941000327E-3,5.985755838E-2
4.566144970E-1,3.544999985E-3,-5.003000144E-3,-4.498000070E-2,4.539600752E-2
4.616111870E-1,-5.201200023E-2,4.105700180E-2,-5.454500020E-2,8.582588544E-2
4.666077460E-1,9.636300057E-2,-3.641700000E-2,-4.258599877E-2,1.114701443E-1
4.716043600E-1,-9.146700054E-2,4.096699879E-2,-4.984100163E-2,1.119313746E-1
4.766010530E-1,1.065099984E-2,-5.611000117E-3,-7.131700218E-2,7.232594223E-2
4.815975940E-1,8.859500289E-2,-3.830900043E-2,1.966799982E-2,9.850626512E-2
4.865942070E-1,-1.709900051E-1,6.546200067E-2,-8.574400097E-2,2.021753919E-1
4.915908120E-1,3.603899851E-2,-9.154999629E-3,-1.095189974E-1,1.156591294E-1
4.965875050E-1,1.407099962E-1,-6.058299914E-2,3.170900047E-2,1.564450815E-1
5.015840450E-1,-7.109300047E-2,3.048299998E-2,-1.150500029E-2,7.820353595E-2
5.065807360E-1,-1.006390005E-1,4.695000127E-2,-1.383520067E-1,1.774085364E-1
5.115772760E-1,4.375100136E-2,-1.166300010E-2,-6.880799681E-2,8.236938822E-2
5.165738780E-1,7.638999820E-2,-3.677900136E-2,5.565600097E-2,1.014185250E-1
5.215704940E-1,-3.066000063E-3,-2.892999910E-3,-1.624600030E-2,1.678399031E-2
5.265671090E-1,-4.427700117E-2,2.614000067E-2,-1.575050056E-1,1.656851812E-1
5.315637350E-1,-1.092300005E-2,1.280899998E-2,-1.071700007E-1,1.084840608E-1
5.365603500E-1,2.213699929E-2,-1.169800013E-2,2.932400070E-2,3.855887657E-2
5.415569650E-1,3.569999943E-3,-6.417000201E-3,3.648100048E-2,3.721271540E-2
5.465535810E-1,-8.949999698E-3,1.993600093E-2,-1.023939997E-1,1.046999417E-1
5.515501820E-1,1.371899992E-2,2.332600020E-2,-1.550900042E-1,1.574332324E-1
5.565467980E-1,1.058799960E-2,5.450999830E-3,-5.698699877E-2,5.821801408E-2
5.615434140E-1,-1.442399994E-2,4.769999941E-4,1.959699951E-2,2.433765997E-2
5.665400340E-1,-1.743000001E-3,4.954000004E-3,-2.349299937E-2,2.407283084E-2
5.715366490E-1,1.524600014E-2,6.790999789E-3,-9.294000268E-2,9.442670330E-2
5.765332640E-1,-6.874000188E-3,4.104000051E-3,-6.662700325E-2,6.710627584E-2
5.815296360E-1,-3.452799842E-2,1.563000027E-3,-9.146000259E-3,3.575297141E-2
5.865264800E-1,-1.985899918E-2,6.138999946E-3,-2.345599979E-2,3.134088536E-2
5.915231060E-1,7.743000053E-3,1.036799978E-2,-7.611799985E-2,7.721009889E-2
5.965194910E-1,2.153199911E-2,2.528999932E-3,-8.094500005E-2,8.379806597E-2
6.015161140E-1,1.519099995E-2,-6.905999966E-3,-3.309400007E-2,3.706308346E-2
6.065127300E-1,4.416000098E-3,-6.211000029E-3,-1.154700015E-2,1.383512886E-2
6.115093260E-1,8.782999590E-3,-5.851999857E-3,-4.506300017E-2,4.628240453E-2
6.165059420E-1,1.055200025E-2,4.366000183E-3,-6.660100073E-2,6.757292331E-2
6.215025570E-1,-2.155000111E-3,9.089999832E-3,-4.028499871E-2,4.135399913E-2
6.264991620E-1,-9.136999957E-3,-3.431000048E-3,-1.396500040E-2,1.703753990E-2
6.314957780E-1,1.077999943E-3,-5.489000119E-3,-3.548699990E-2,3.592517736E-2
6.364923940E-1,1.056700014E-2,-1.199999970E-4,-6.419699639E-2,6.506097323E-2
6.414889820E-1,-2.040999942E-3,2.484000055E-3,-5.941500142E-2,5.950191872E-2
6.464855980E-1,-1.118099969E-2,2.455000067E-3,-4.025299847E-2,4.184908201E-2
6.514822130E-1,-5.417999811E-3,-2.419000026E-3,-3.783899918E-2,3.830138564E-2
6.564788280E-1,2.030000091E-3,-2.094999887E-3,-5.218600109E-2,5.226747205E-2
6.614754330E-1,1.893999986E-3,3.138999920E-3,-5.696199834E-2,5.707985469E-2
6.664720480E-1,-4.049999989E-4,3.046999918E-3,-4.020399973E-2,4.032133217E-2
6.714686540E-1,2.143000020E-3,2.910000039E-3,-2.344599925E-2,2.372288832E-2
6.764651940E-1,6.833000109E-3,2.349999995E-4,-3.782299906E-2,3.843597759E-2
6.814618850E-1,-3.211000003E-3,7.513000164E-3,-5.698399991E-2,5.756676070E-2
6.864585110E-1,-9.964000434E-3,-1.369999954E-4,-5.459700152E-2,5.549894277E-2
6.914551270E-1,-6.568999961E-3,-7.137000095E-3,-3.062500060E-2,3.212443295E-2
6.964517370E-1,3.461000044E-3,3.144999966E-3,-2.819499932E-2,2.858019477E-2
7.014482750E-1,1.023400016E-2,5.357000045E-3,-4.975900054E-2,5.108219204E-2
7.064449810E-1,2.310999902E-3,7.447000127E-3,-5.696899816E-2,5.750013290E-2
7.114415210E-1,-4.916000180E-3,6.984000094E-3,-4.022699967E-2,4.112365277E-2
7.164381350E-1,-4.373999778E-3,-7.769999793E-4,-4.262999818E-2,4.286084866E-2
7.214347450E-1,9.130000253E-4,-2.972000046E-3,-4.740000144E-2,4.750185775E-2
7.264313600E-1,8.046999574E-3,2.320999978E-3,-5.217099935E-2,5.283894791E-2
7.314279810E-1,9.789000265E-3,-4.999999874E-6,-4.500199854E-2,4.605436379E-2
7.364245960E-1,4.288999829E-3,-4.652000032E-3,-3.304199874E-2,3.364238851E-2
7.414212260E-1,4.025000148E-3,2.926999936E-3,-3.782099858E-2,3.814702988E-2
7.464176120E-1,3.898999887E-3,2.688999986E-3,-4.501700029E-2,4.526547510E-2
7.514144560E-1,1.402999973E-3,-4.583000205E-3,-4.262899980E-2,4.289759811E-2
7.564110550E-1,-5.779999774E-3,-6.345000118E-3,-3.542099893E-2,3.644605039E-2
7.614076700E-1,-1.246600039E-2,-9.009999922E-4,-3.538699821E-2,3.752935663E-2
7.664042860E-1,-6.498000119E-3,4.073000047E-3,-4.253400117E-2,4.321984024E-2
7.714006550E-1,3.864000086E-3,-8.280000184E-4,-4.730900005E-2,4.747375660E-2
7.763972690E-1,6.165000144E-3,1.888999948E-3,-4.011600092E-2,4.063088822E-2
7.813941200E-1,5.754999816E-3,4.246000201E-3,-4.252199829E-2,4.311924024E-2
7.863907370E-1,1.735699922E-2,1.621000003E-3,-5.690399930E-2,5.951435288E-2
7.913870980E-1,8.834999986E-3,-7.329999935E-4,-5.693500116E-2,5.762108010E-2
7.963837110E-1,-6.136000156E-3,4.296000116E-3,-4.257399961E-2,4.322790254E-2
8.013803270E-1,-3.091000021E-3,6.453999784E-3,-4.017300159E-2,4.080537282E-2
8.063769420E-1,-2.706999891E-3,6.025000010E-3,-5.214999989E-2,5.256663354E-2
8.113735570E-1,4.850999918E-3,1.045800000E-2,-5.694299936E-2,5.809825420E-2
8.163701730E-1,2.193999942E-3,1.692000031E-2,-5.218600109E-2,5.490426902E-2
8.213667930E-1,2.150000073E-3,8.550999686E-3,-4.504900053E-2,4.590375306E-2
8.263634090E-1,1.146300044E-2,-1.619999995E-3,-4.507699981E-2,4.653988280E-2
8.313600390E-1,5.717999768E-3,-6.235999987E-3,-5.227499828E-2,5.295525151E-2
8.363566550E-1,-1.812999952E-3,-5.642000120E-3,-5.704899877E-2,5.735597088E-2
8.413532710E-1,-8.686999790E-3,-2.969999914E-4,-5.702399835E-2,5.768265391E-2
8.463498770E-1,-1.257599983E-2,2.193999942E-3,-4.742199928E-2,4.911023745E-2
8.513464920E-1,-6.678000093E-3,1.172900014E-2,-4.739800096E-2,4.928220393E-2
8.563430360E-1,-1.389999990E-3,8.577999659E-3,-4.741299897E-2,4.820276600E-2
8.613397260E-1,-3.633999964E-3,-3.876999952E-3,-3.306100145E-2,3.348532367E-2
8.663363440E-1,1.569999964E-3,-8.231000043E-3,-2.824700065E-2,2.946366079E-2
8.713328770E-1,1.339699980E-2,-9.832999669E-3,-4.019299895E-2,4.349304140E-2
8.763294910E-1,1.226199977E-2,-1.604700089E-2,-4.497399926E-2,4.930033961E-2
8.813261680E-1,8.837999776E-3,-7.346999831E-3,-5.451900139E-2,5.571723396E-2
8.863227080E-1,8.120999672E-3,-4.149999935E-3,-4.732500017E-2,4.819573400E-2
8.913193130E-1,7.451999933E-3,-8.434000425E-3,-3.056100011E-2,3.256745912E-2
8.963159280E-1,6.806999911E-3,-2.930999966E-3,-3.533799946E-2,3.610678904E-2
9.013125440E-1,1.542999991E-3,-2.779999922E-4,-3.533900157E-2,3.537376379E-2
9.063092210E-1,-8.057000116E-3,2.146000043E-3,-2.815699950E-2,2.936557828E-2
9.113057610E-1,-9.669000283E-3,1.948000048E-3,-3.293500096E-2,3.438020591E-2
9.163023750E-1,-1.556999981E-3,9.068000130E-3,-3.531000018E-2,3.648902558E-2
9.212989850E-1,9.749999736E-4,1.558400039E-2,-3.772599995E-2,4.082967996E-2
9.262953720E-1,3.504999913E-3,4.892999772E-3,-4.015599936E-2,4.060456570E-2
9.312923030E-1,5.820999853E-3,6.992999930E-3,-3.777499869E-2,3.885532928E-2
9.362888430E-1,1.022499986E-2,6.407999899E-3,-4.977500066E-2,5.121683098E-2
9.412852280E-1,9.588000365E-3,3.619000083E-3,-5.938199908E-2,6.025984340E-2
9.462818550E-1,1.842000056E-3,3.494000062E-3,-5.700699985E-2,5.714367010E-2
9.512784710E-1,-5.569999921E-4,9.769999888E-4,-5.222199857E-2,5.223410680E-2
9.562750860E-1,-2.761000069E-3,5.843999796E-3,-4.742699862E-2,4.786539097E-2
9.612716980E-1,2.396000084E-3,7.009999827E-4,-4.503700137E-2,4.510613827E-2
9.662683130E-1,7.106999867E-3,-4.005999770E-3,-3.545700014E-2,3.638346245E-2
9.712649560E-1,6.606000010E-3,3.629999934E-3,-3.545299917E-2,3.624543124E-2
9.762615720E-1,6.252000108E-3,5.822999869E-3,-3.786399961E-2,3.881594130E-2
9.812581880E-1,5.934000015E-3,6.539999740E-4,-4.506700113E-2,4.546069361E-2
9.862547990E-1,3.158000065E-3,3.132000100E-3,-4.986000061E-2,5.005798687E-2
9.912514150E-1,5.417999811E-3,5.307999905E-3,-5.465900153E-2,5.518275123E-2
9.962480300E-1,2.704000100E-3,1.220500004E-2,-5.467800051E-2,5.608883474E-2
1.001244641E0,2.515000058E-3,8.933000267E-3,-4.513800144E-2,4.608213204E-2
1.006241256E0,2.321999986E-3,5.911999848E-3,-3.319299966E-2,3.379524601E-2
1.011237875E0,-7.348000072E-3,5.611999892E-3,-3.320499882E-2,3.446824037E-2
1.016234490E0,-6.614000071E-3,2.838999964E-3,-3.320299834E-2,3.397416690E-2
1.021231026E0,-3.548000008E-3,7.484999951E-3,-3.079699911E-2,3.189151427E-2
1.026227640E0,-7.500000065E-4,1.172699966E-2,-3.320400044E-2,3.522201962E-2
1.031224288E0,-2.975000069E-3,8.430000395E-3,-4.280899838E-2,4.373243503E-2
1.036220904E0,-4.989999812E-3,-1.633999986E-3,-4.999899864E-2,5.027394871E-2
1.041217519E0,2.759000054E-3,-3.735000035E-3,-4.997599870E-2,5.019126172E-2
1.046214129E0,2.658999991E-3,-3.260999918E-3,-4.517199844E-2,4.536754175E-2
1.051210745E0,4.953000229E-3,-2.841999987E-3,-4.755400121E-2,4.789563870E-2
1.056207361E0,4.656999838E-3,-5.400000009E-5,-4.515200108E-2,4.539156051E-2
1.061203963E0,-4.020000051E-4,-2.304000081E-3,-4.036600143E-2,4.043369995E-2
1.066200579E0,-2.644000109E-3,-6.771000102E-3,-4.992699996E-2,5.045336960E-2
1.071197218E0,-1.185599994E-2,-3.641000018E-3,-4.749900103E-2,4.909151367E-2
1.076193833E0,-1.310299989E-2,1.607000013E-3,-4.266700149E-2,4.466255782E-2
1.081190228E0,-4.776000045E-3,-5.580999888E-3,-4.264000058E-2,4.326808738E-2
1.086187073E0,5.229999777E-3,-1.204899978E-2,-3.781700134E-2,4.003319727E-2
1.091183690E0,1.915200055E-2,-6.002999842E-3,-3.059799969E-2,3.659334253E-2
1.096180074E0,1.479000039E-2,1.794000040E-3,-1.865099929E-2,2.387095144E-2
1.101176918E0,-5.407100171E-2,1.846400090E-2,-2.587799914E-2,6.272370680E-2
1.106173304E0,-7.555899769E-2,4.088899866E-2,-7.131099701E-2,1.116527234E-1
1.111169918E0,9.740100056E-2,-1.989099942E-2,-3.533200175E-2,1.055033512E-1
1.116166533E0,1.726160049E-1,-6.843800098E-2,5.310999975E-2,1.931339359E-1
1.121163163E0,-1.595569998E-1,6.153599918E-2,-8.352500200E-2,1.903195769E-1
1.126159778E0,-5.658600107E-2,2.556199953E-2,-1.719630063E-1,1.828296115E-1
1.131156375E0,1.239140034E-1,-4.753100127E-2,4.839299992E-2,1.412648532E-1
1.136152991E0,-1.095580012E-1,3.038099967E-2,2.672700025E-2,1.167916662E-1
1.141149591E0,9.828200191E-2,-3.486099839E-2,-4.978400096E-2,1.155555618E-1
1.146146207E0,-2.984699979E-2,2.565399930E-2,-1.145130023E-1,1.210875666E-1
1.151142823E0,1.640900038E-2,-4.726999905E-3,-4.985800013E-2,5.270123337E-2
1.156139454E0,-1.827800088E-2,-1.353400014E-2,5.210000090E-3,2.333235044E-2
1.161135993E0,-3.397300094E-2,4.364999942E-3,1.245800033E-2,3.644749360E-2
1.166132586E0,6.210999936E-2,-4.164399952E-2,-8.326599747E-2,1.119155979E-1
1.171129202E0,-8.898299932E-2,6.276399642E-2,-9.042199701E-2,1.415395032E-1
1.176125817E0,1.611460000E-1,-5.957800150E-2,3.647900000E-2,1.756368100E-1
1.181122427E0,-1.422079951E-1,5.531200022E-2,-6.182400137E-2,1.646351675E-1
1.186119043E0,7.294200361E-2,1.484300010E-2,3.404499963E-2,8.185299348E-2
1.191115658E0,8.388599753E-2,-7.979699969E-2,-1.217570007E-1,1.680154426E-1
1.196112351E0,-2.225870043E-1,1.357869953E-1,-6.658799946E-2,2.691041513E-1
1.201108887E0,2.515189946E-1,-9.573999792E-2,1.178020015E-1,2.937775747E-1
1.206105500E0,-7.117000222E-2,-5.230100080E-2,-1.481669992E-1,1.724935464E-1
1.211102116E0,-2.160409987E-1,1.823350042E-1,-5.448399857E-2,2.879032354E-1
1.216098731E0,3.105550110E-1,-1.514829993E-1,6.511499733E-2,3.516126801E-1
1.221095347E0,-6.721799821E-2,-7.896199822E-2,-1.816290021E-1,2.091467209E-1
1.226091713E0,-2.819859982E-1,2.659600079E-1,-1.603600010E-2,3.879535826E-1
1.231088327E0,2.779969871E-1,-9.422200173E-2,1.129920036E-1,3.145271106E-1
1.236084942E0,1.400139928E-1,-2.447090000E-1,-1.626199931E-1,3.254714657E-1
1.241081548E0,-3.314769864E-1,2.532730103E-1,-1.333509982E-1,4.379574168E-1
1.246078164E0,5.845999811E-3,1.744250059E-1,1.466259956E-1,2.279417491E-1
1.251074803E0,3.358030021E-1,-3.505600095E-1,2.637699991E-2,4.861601820E-1
1.256071419E0,-8.013900369E-2,-1.079260036E-1,-2.245910019E-1,2.617468248E-1
1.261068034E0,-3.195849955E-1,4.025090039E-1,-7.561500371E-2,5.194859924E-1
1.266064634E0,9.306400269E-2,8.591300249E-2,1.368539929E-1,1.864697508E-1
1.271061250E0,3.079299927E-1,-4.243969917E-1,-9.639999829E-3,5.244298014E-1
1.276057866E0,-6.505899876E-2,-1.298779994E-1,-2.196239978E-1,2.633166696E-1
1.281054463E0,-3.107230067E-1,4.134790003E-1,-9.694000334E-2,5.262233697E-1
1.286051079E0,-4.071999807E-3,1.987760067E-1,1.154540032E-1,2.299089143E-1
1.291047704E0,3.075169921E-1,-3.782849908E-1,3.108499944E-2,4.885002680E-1
1.296044243E0,1.022669971E-1,-3.151760101E-1,-1.838620007E-1,3.789454992E-1
1.301040860E0,-2.605729997E-1,2.559750080E-1,-1.662259996E-1,4.013135630E-1
1.306037476E0,-2.094489932E-1,4.186510146E-1,3.933700174E-2,4.697711703E-1
1.311034168E0,1.599780023E-1,-5.492499843E-2,1.127149984E-1,2.032594095E-1
1.316030703E0,2.879109979E-1,-4.502150118E-1,-3.589700162E-2,5.356070335E-1
1.321027317E0,5.179999862E-4,-1.843419969E-1,-1.954559982E-1,2.686731981E-1
1.326023961E0,-2.889119983E-1,3.467940092E-1,-1.277710050E-1,4.691072983E-1
1.331020577E0,-1.851110011E-1,3.842529953E-1,6.558500230E-2,4.315296509E-1
1.336017192E0,1.582020074E-1,-8.889099956E-2,1.055129990E-1,2.099106427E-1
1.341013807E0,2.790009975E-1,-4.406880140E-1,-4.300900176E-2,5.233519433E-1
1.346010423E0,3.546199948E-2,-2.137829959E-1,-1.882179976E-1,2.870308997E-1
1.351007049E0,-2.449429929E-1,2.841700017E-1,-1.396410018E-1,4.003114651E-1
1.356003665E0,-2.237949967E-1,4.371899962E-1,2.748899907E-2,4.919094820E-1
1.361000050E0,6.310500205E-2,7.205499709E-2,1.104179993E-1,1.461721535E-1
1.365996678E0,2.708390057E-1,-3.819490075E-1,1.190899964E-2,4.683808660E-1
1.370993524E0,1.548909992E-1,-3.638989925E-1,-1.526979953E-1,4.239461949E-1
1.375989910E0,-1.403989941E-1,7.969599962E-2,-1.757059991E-1,2.386125060E-1
1.380986524E0,-2.717509866E-1,4.299919903E-1,-5.597700179E-2,5.117373693E-1
1.385983139E0,-8.844099939E-2,2.927809954E-1,7.727599889E-2,3.154585577E-1
1.390979770E0,1.964469999E-1,-1.749950051E-1,6.702999771E-2,2.714916135E-1
1.395976385E0,2.614589930E-1,-4.475190043E-1,-7.892700285E-2,5.242742946E-1
1.400973000E0,4.565000162E-2,-2.197829932E-1,-1.857649982E-1,2.913711058E-1
1.405969616E0,-2.117020041E-1,2.498469949E-1,-1.443710029E-1,3.578885942E-1
1.410966231E0,-2.293280065E-1,4.416570067E-1,-1.072099991E-2,4.977621782E-1
1.415962851E0,5.360000068E-4,1.622080058E-1,8.654099703E-2,1.838506693E-1
1.420959467E0,2.300669998E-1,-2.873139977E-1,4.297599941E-2,3.705767049E-1
1.425956006E0,2.156269997E-1,-4.257000089E-1,-9.073600173E-2,4.857453269E-1
1.430952697E0,-1.310199965E-2,-1.207450032E-1,-1.687719971E-1,2.079302893E-1
1.435949314E0,-2.247750014E-1,3.042950034E-1,-1.204269975E-1,3.970162618E-1
1.440945863E0,-2.006559968E-1,4.196420014E-1,1.786400005E-2,4.654904520E-1
1.445942476E0,4.122100025E-2,1.037769988E-1,9.839899838E-2,1.488327895E-1
1.450939072E0,2.411510050E-1,-3.192639947E-1,2.379000001E-2,4.008107654E-1
1.455935688E0,2.042299956E-1,-4.069519937E-1,-1.122220010E-1,4.689494576E-1
1.460932303E0,-2.590999939E-2,-7.712099701E-2,-1.783040017E-1,1.959879927E-1
1.465928680E0,-2.293770015E-1,3.323110044E-1,-1.133219972E-1,4.193879916E-1
1.470925293E0,-1.930260062E-1,4.141080081E-1,3.685399890E-2,4.583696093E-1
1.475922139E0,4.323900118E-2,8.914799988E-2,1.149960011E-1,1.517928107E-1
1.480918536E0,2.380779982E-1,-3.183209896E-1,3.803100064E-2,3.993190988E-1
1.485915149E0,2.014179975E-1,-4.085609913E-1,-1.027669981E-1,4.669607577E-1
1.490911755E0,-3.316500038E-2,-8.823200315E-2,-1.616570055E-1,1.871304119E-1
1.495908601E0,-2.334340066E-1,3.148030043E-1,-1.014150009E-1,4.048176989E-1
1.500904988E0,-2.062509954E-1,4.123629928E-1,1.769600064E-2,4.614063928E-1
1.505901601E0,2.163499966E-2,1.043030024E-1,9.108000249E-2,1.401526181E-1
1.510898216E0,2.279250026E-1,-3.091900051E-1,2.608999982E-2,3.850051352E-1
1.515894832E0,2.086800039E-1,-4.192950130E-1,-1.075410023E-1,4.805421096E-1
1.520891447E0,-7.584000006E-3,-1.147750020E-1,-1.759950072E-1,2.102499957E-1
1.525888053E0,-2.126500010E-1,2.979159951E-1,-1.157059968E-1,3.838773773E-1
1.530884668E0,-2.040719986E-1,4.209940135E-1,2.256700024E-2,4.683915131E-1
1.535881283E0,4.354000092E-3,1.337469965E-1,1.030839980E-1,1.689186995E-1
1.540877899E0,2.096900046E-1,-2.870489955E-1,4.761999846E-2,3.586567831E-1
1.545874515E0,2.089589983E-1,-4.230929911E-1,-8.603599668E-2,4.796600200E-1
1.550871046E0,-1.670099981E-2,-1.303649992E-1,-1.736399978E-1,2.177723703E-1
1.555867736E0,-2.303469926E-1,2.859550118E-1,-1.276450008E-1,3.887457421E-1
1.560864261E0,-2.224799991E-1,4.244439900E-1,5.921999924E-3,4.792547555E-1
1.565860875E0,4.439000040E-3,1.440760046E-1,9.126000106E-2,1.706047702E-1
1.570857500E0,2.265499979E-1,-2.871569991E-1,4.055700079E-2,3.680066766E-1
1.575854116E0,2.148050070E-1,-4.302290082E-1,-9.313800186E-2,4.898090219E-1
1.580850808E0,-1.864800043E-2,-1.320510060E-1,-1.639730036E-1,2.113583734E-1
1.585847362E0,-2.250660062E-1,3.011319935E-1,-1.107899994E-1,3.919306171E-1
1.590843976E0,-2.058510035E-1,4.215329885E-1,2.032000013E-2,4.695504217E-1
1.595840591E0,2.198700048E-2,1.150830016E-1,9.845399857E-2,1.530382804E-1
1.600836968E0,2.283349931E-1,-3.065240085E-1,3.103799932E-2,3.834803701E-1
1.605833812E0,2.045789957E-1,-4.168840051E-1,-1.073829979E-1,4.766297802E-1
1.610830214E0,-3.027700074E-2,-1.053899974E-1,-1.806190014E-1,2.112983009E-1
1.615826827E0,-2.356420010E-1,3.135839999E-1,-1.179239973E-1,4.095951010E-1
1.620823447E0,-2.011169940E-1,4.184460044E-1,2.992600016E-2,4.652318447E-1
1.625820063E0,4.303900152E-2,1.027889997E-1,1.056749970E-1,1.535745392E-1
1.630816668E0,2.498780042E-1,-3.177900016E-1,3.106000088E-2,4.054555780E-1
1.635813284E0,2.074210048E-1,-4.201110005E-1,-1.169480011E-1,4.829011917E-1
1.640809899E0,-3.496799991E-2,-9.640300274E-2,-1.925670058E-1,2.181704647E-1
1.645806435E0,-2.278250009E-1,3.146640062E-1,-1.370709985E-1,4.119540344E-1
1.650803048E0,-1.914039999E-1,4.002949893E-1,-6.000999827E-3,4.437426976E-1
1.655799663E0,3.769500181E-2,8.846700191E-2,7.934600115E-2,1.246720157E-1
1.660796371E0,2.305680066E-1,-3.116919994E-1,3.112100065E-2,3.889499002E-1
1.665792988E0,1.943359971E-1,-4.072479904E-1,-9.530799836E-2,4.611952081E-1
1.670789527E0,-4.463800043E-2,-5.835299939E-2,-1.733310074E-1,1.882584971E-1
1.675786140E0,-2.777090073E-1,3.852379918E-1,-9.162499756E-2,4.836587053E-1
1.680782755E0,-8.426299691E-2,2.661460042E-1,1.183239967E-1,3.032070520E-1
1.685779395E0,2.986530066E-1,-2.353300005E-1,9.613200277E-2,3.921927962E-1
1.690776010E0,-5.415400118E-2,-8.173500001E-2,-1.407759935E-1,1.715550827E-1
1.695772614E0,-1.381649971E-1,1.627150029E-1,-6.320999935E-3,2.135548961E-1
1.700769230E0,1.517599970E-1,-4.511500150E-2,7.814000361E-3,1.585166195E-1
1.705765846E0,-7.416299731E-2,3.033999912E-2,-8.333099633E-2,1.156058851E-1
1.710762467E0,1.633399911E-2,3.506200016E-2,-3.059599921E-2,4.931793335E-2
1.715758852E0,5.333900079E-2,-1.083500031E-2,-3.790999949E-2,6.632958841E-2
1.720755461E0,-9.019699693E-2,4.528100044E-2,-5.952600017E-2,1.171717199E-1
1.725752076E0,1.069680005E-1,-3.733700141E-2,-2.834700048E-2,1.167893713E-1
1.730748696E0,-5.587499961E-2,3.060800023E-2,-1.169100031E-2,6.477302485E-2
1.735745312E0,-6.495899707E-2,2.082799934E-2,-8.109500259E-2,1.059711107E-1
1.740741941E0,1.516309977E-1,-7.159200311E-2,1.954800077E-2,1.688179454E-1
1.745738557E0,-9.669499844E-2,1.816900074E-2,-4.494000226E-3,9.848975251E-2
1.750735186E0,-9.981200099E-2,3.087499924E-2,-1.264560074E-1,1.640329934E-1
1.755731801E0,1.302399933E-1,-5.511099845E-2,-2.335299924E-2,1.433354129E-1
1.760728417E0,7.062999904E-2,-4.082300141E-2,5.075899884E-2,9.608116450E-2
1.765724943E0,-8.973000199E-2,2.943800017E-2,-8.814600110E-2,1.291812162E-1
1.770721557E0,-5.272600055E-2,2.487600036E-2,-1.455000043E-1,1.567453278E-1
1.775718148E0,4.172300175E-2,-1.972300000E-2,-2.091700025E-2,5.066879220E-2
1.780714840E0,4.301699996E-2,-2.046499960E-2,5.567499995E-2,7.327335200E-2
1.785711381E0,-1.901900023E-2,4.738999996E-3,-5.451700091E-2,5.793344353E-2
1.790708003E0,-2.734000050E-2,1.658000052E-2,-1.263200045E-1,1.303039354E-1
1.795704619E0,6.655000150E-3,3.986999858E-3,-3.529699892E-2,3.613949816E-2
1.800701239E0,4.108999856E-3,-5.816999823E-3,7.003600150E-2,7.039717944E-2
1.805697931E0,-1.070799958E-2,1.559200045E-2,5.375999957E-3,1.966400540E-2
1.810694477E0,9.491999634E-3,2.350700088E-2,-1.000040025E-1,1.031672315E-1
1.815691090E0,1.172600035E-2,1.471399982E-2,-9.767200053E-2,9.946768602E-2
1.820687706E0,-1.767900027E-2,1.167100016E-2,-2.109700069E-2,2.989720277E-2
1.825684087E0,-9.421999566E-3,3.657999914E-3,4.459999909E-4,1.011701316E-2
1.830680701E0,1.963000000E-2,-3.837999888E-3,-5.701800063E-2,6.042449453E-2
1.835677316E0,2.298700064E-2,-3.330999985E-3,-7.858099788E-2,8.194187567E-2
1.840673932E0,4.860000219E-3,-2.797999885E-3,-3.789300099E-2,3.830571667E-2
1.845670547E0,-1.210100017E-2,2.139999997E-3,-1.976999920E-3,1.244678006E-2
1.850667152E0,-1.123300008E-2,1.133100037E-2,-4.506700113E-2,4.780801660E-2
1.855663768E0,-7.699999842E-4,1.049700007E-2,-8.099099994E-2,8.167203916E-2
1.860660388E0,-3.004000057E-3,1.005499996E-2,-4.509000108E-2,4.629508870E-2
1.865657004E0,-7.513000164E-3,4.648999777E-3,2.778999973E-3,9.261814684E-3
1.870653520E0,2.634000033E-3,1.745000016E-3,-1.159000024E-2,1.201295496E-2
1.875650133E0,2.473999979E-3,8.706999943E-3,-5.948799849E-2,6.017270550E-2
1.880646749E0,-4.552999977E-3,1.053600013E-2,-6.429100037E-2,6.530750214E-2
1.885643447E0,-8.777000010E-3,9.824999608E-3,-3.317999840E-2,3.569984090E-2
1.890639988E0,-5.731999874E-3,1.796999946E-3,-3.319599852E-2,3.373513523E-2
1.895636591E0,4.228999838E-3,6.533999927E-3,-5.952399969E-2,6.003069327E-2
1.900633206E0,4.129000008E-3,8.549000137E-3,-6.432899833E-2,6.502579542E-2
1.905629822E0,6.546000019E-3,8.280000184E-4,-3.801099956E-2,3.857942182E-2
1.910626447E0,-1.086000004E-3,-4.015999846E-3,-2.605200000E-2,2.638208397E-2
1.915623063E0,-3.504999913E-3,-1.087999996E-2,-4.519499838E-2,4.661810059E-2
1.920619669E0,1.608000020E-3,-1.209800038E-2,-4.993300140E-2,5.140283948E-2
1.925616285E0,3.898999887E-3,-5.909999833E-3,-4.030999914E-2,4.092708551E-2
1.930612882E0,1.184999943E-3,-5.175000057E-3,-2.831999958E-2,2.881331682E-2
1.935609497E0,1.074000029E-3,-1.193100028E-2,-3.309499845E-2,3.519632319E-2
1.940606102E0,1.086000004E-3,-1.569899917E-2,-5.939399824E-2,6.144334787E-2
1.945602487E0,-1.243000035E-3,-9.378000163E-3,-6.173099950E-2,6.245164718E-2
1.950599101E0,-3.371000057E-3,-5.983000156E-3,-4.253400117E-2,4.308481389E-2
1.955595947E0,6.510000210E-3,-7.730000187E-3,-4.250599816E-2,4.369087875E-2
1.960592333E0,1.315299980E-2,-6.932999939E-3,-5.206499994E-2,5.414639518E-2
1.965588957E0,9.666999802E-3,-3.779999912E-3,-4.966799915E-2,5.074100338E-2
1.970585572E0,1.688000048E-3,1.488000038E-3,-3.769899905E-2,3.776609614E-2
1.975582188E0,1.552999951E-3,1.478999970E-3,-3.530900180E-2,3.537407042E-2
1.980579024E0,1.425000024E-3,-3.429000033E-3,-4.489300027E-2,4.504631106E-2
1.985575410E0,-3.461000044E-3,4.188000225E-3,-4.966799915E-2,4.996426730E-2
1.990571918E0,1.757999999E-3,6.380000152E-3,-4.248299822E-2,4.299534979E-2
1.995568610E0,-3.060000017E-3,6.072999910E-3,-4.249300063E-2,4.303370807E-2
2.000565214E0,-5.171999801E-3,1.526200026E-2,-4.010700062E-2,4.322325454E-2
2.005561829E0,2.468999941E-3,1.636799984E-2,-4.972099885E-2,5.240405620E-2
2.010558381E0,-2.394000068E-3,7.937000133E-3,-4.976699874E-2,5.045276376E-2
2.015554995E0,-2.053000033E-3,3.349999897E-4,-3.780400008E-2,3.786118667E-2
2.020551610E0,6.270000013E-4,4.250000056E-4,-4.018799961E-2,4.019513735E-2
2.025548236E0,6.919999723E-4,-4.273999948E-3,-4.736699909E-2,4.756446722E-2
2.030544851E0,3.161000088E-3,-6.153999828E-3,-5.452699959E-2,5.496414577E-2
2.035541466E0,6.430000067E-4,-6.670000148E-4,-4.971599951E-2,4.972463118E-2
2.040538096E0,-4.164999817E-3,-5.138999783E-3,-4.491800070E-2,4.540245950E-2
2.045534482E0,-3.782999935E-3,-4.453999922E-3,-4.727900028E-2,4.763877697E-2
2.050531087E0,-3.429000033E-3,3.361999989E-3,-4.964099824E-2,4.987273596E-2
2.055527933E0,-2.994999988E-3,-1.558999997E-3,-4.724200070E-2,4.736250770E-2
2.060524329E0,-2.139999997E-4,-8.457000367E-3,-4.003899917E-2,4.092295329E-2
2.065520942E0,2.312999917E-3,-7.604000159E-3,-4.239900038E-2,4.313752450E-2
2.070517572E0,-2.589999931E-4,2.757000038E-3,-4.237399995E-2,4.246438510E-2
2.075514188E0,-9.793000296E-3,7.441999856E-3,-4.477199912E-2,4.643078851E-2
2.080510803E0,-1.132099982E-2,6.943999790E-3,-4.237499833E-2,4.440748421E-2
2.085507419E0,1.747000031E-3,6.479999982E-3,-4.236600175E-2,4.289429465E-2
2.090503959E0,6.513999775E-3,6.054999772E-3,-4.716999829E-2,4.800108284E-2
2.095500634E0,3.700000001E-3,5.681000184E-3,-4.958700016E-2,5.004832013E-2
2.100497252E0,5.915999878E-3,1.013700012E-2,-5.200000107E-2,5.330814138E-2
2.105493790E0,7.946999744E-3,1.171899959E-2,-5.443000048E-2,5.624157456E-2
2.110490404E0,7.309999783E-3,-1.190999988E-3,-5.926899984E-2,5.972996669E-2
2.115487019E0,6.839999929E-3,-9.030000074E-4,-4.729799926E-2,4.779855377E-2
2.120483625E0,3.992999904E-3,4.213999957E-3,-4.011400044E-2,4.053189948E-2
2.125480241E0,-1.122000045E-3,8.870000020E-3,-4.491600022E-2,4.579719271E-2
2.130476856E0,-5.787999835E-3,1.064299978E-2,-4.493600130E-2,4.654050493E-2
2.135473462E0,-4.809999955E-4,5.082999822E-3,-4.734599963E-2,4.762049904E-2
2.140469848E0,4.379000049E-3,-7.176000159E-3,-4.256499931E-2,4.338720763E-2
2.145466481E0,4.122999962E-3,-1.121400017E-2,-4.254499823E-2,4.419083392E-2
2.150463096E0,1.494999975E-3,-5.328999832E-3,-4.969299957E-2,5.000027470E-2
2.155459711E0,-8.919999818E-4,-2.319999970E-3,-4.248800129E-2,4.256064282E-2
2.160456322E0,-5.483000074E-3,4.079999926E-4,-4.486399889E-2,4.519964768E-2
2.165452937E0,-4.887000192E-3,-1.877999981E-3,-5.921199918E-2,5.944300212E-2
2.170449563E0,-4.308000207E-3,5.650000181E-3,-6.397400051E-2,6.436733729E-2
2.175446178E0,3.518000012E-3,1.015300024E-2,-5.439300090E-2,5.544419072E-2
2.180442718E0,1.054800022E-2,9.451000020E-3,-4.244999960E-2,4.475024219E-2
2.185439419E0,7.373999804E-3,6.378999911E-3,-5.206999928E-2,5.297501617E-2
2.190436036E0,1.156899985E-2,5.994000006E-3,-6.167599931E-2,6.303728012E-2
2.195432652E0,1.781599969E-2,1.045999955E-2,-5.452600121E-2,5.830871499E-2
2.200429190E0,9.251000360E-3,1.559999946E-4,-5.697999895E-2,5.772629924E-2
2.205425788E0,1.426000032E-3,2.713999944E-3,-5.938100070E-2,5.946009179E-2
2.210422404E0,1.457000035E-3,1.224500034E-2,-5.938399956E-2,6.065082263E-2
2.215419019E0,-9.030000074E-4,4.195000045E-3,-5.702000111E-2,5.718123784E-2
2.220415625E0,-3.067000071E-3,-3.170999931E-3,-4.744499922E-2,4.764965562E-2
2.225412240E0,-7.565999869E-3,-2.748999977E-3,-4.263399914E-2,4.338731655E-2
2.230408851E0,-6.897000130E-3,2.404999919E-3,-4.739300162E-2,4.795257279E-2
2.235405238E0,3.300999990E-3,4.739999771E-3,-5.456300080E-2,5.486788911E-2
2.240401860E0,3.162000095E-3,-2.830000012E-4,-4.978699982E-2,4.988811166E-2
2.245398476E0,6.309999735E-4,-2.600000007E-3,-4.499800131E-2,4.507746979E-2
2.250395322E0,1.017899998E-2,1.559999946E-4,-4.738099873E-2,4.846230924E-2
2.255391699E0,9.437999688E-3,-4.497000016E-3,-4.739300162E-2,4.853241648E-2
2.260388312E0,-3.108999925E-3,-1.114400011E-2,-4.738700017E-2,4.877891352E-2
2.265384927E0,-2.817000030E-3,-4.609999887E-4,-4.733999819E-2,4.742597852E-2
2.270381543E0,4.635999911E-3,-2.739999909E-4,-4.972099885E-2,4.993741381E-2
2.275378083E0,-4.119999940E-4,-2.383999992E-3,-4.732299969E-2,4.738480241E-2
2.280374765E0,-9.820000269E-3,2.859999891E-3,-5.209000036E-2,5.308465072E-2
2.285371382E0,-6.434999872E-3,9.956000373E-3,-5.685900152E-2,5.808164271E-2
2.290368006E0,6.455000024E-3,1.645899937E-2,-6.165200099E-2,6.413684520E-2
2.295364545E0,3.521199897E-2,-1.521999948E-3,-6.648200005E-2,7.524664568E-2
2.300361163E0,5.138799921E-2,-1.793099940E-2,-4.499299824E-2,7.061598327E-2
2.305357779E0,-4.733699933E-2,1.010099985E-2,-3.787200153E-2,6.145819883E-2
2.310354394E0,-1.489160061E-1,5.722900108E-2,-1.144279987E-1,1.963285570E-1
2.315351025E0,8.807200193E-2,-3.108200058E-2,-7.354699820E-2,1.188777912E-1
2.320347640E0,1.835100055E-1,-7.615099847E-2,7.241900265E-2,2.114696400E-1
2.325344027E0,-1.684249938E-1,6.855399907E-2,-9.055899829E-2,2.031441889E-1
2.330340870E0,4.056899995E-2,-4.017000087E-3,-1.622409970E-1,1.672845514E-1
2.335337256E0,-3.294999944E-3,1.949999947E-3,-1.143800002E-2,1.206181449E-2
2.340334086E0,-4.364899918E-2,1.815999974E-3,7.718999870E-3,4.436345280E-2
2.345330473E0,3.379299864E-2,-9.629999986E-4,-3.052400053E-2,4.554787299E-2
2.350327077E0,2.260999987E-3,2.066200040E-2,-1.072029993E-1,1.091994205E-1
2.355323692E0,-4.441999830E-3,2.410599962E-2,-8.569400012E-2,8.913075921E-2
2.360320303E0,4.892599955E-2,-2.548100054E-2,2.199999988E-2,5.938884420E-2
2.365316919E0,-5.611899868E-2,1.722100005E-2,-5.464600027E-2,8.020031297E-2
2.370313534E0,3.680000082E-2,1.550000045E-3,-4.501599818E-2,5.816427299E-2
2.375310158E0,2.462100051E-2,-3.186199814E-2,-1.240829974E-1,1.304529449E-1
2.380306774E0,-9.225399792E-2,6.476300210E-2,-1.148100011E-2,1.132998673E-1
2.385303314E0,1.961400062E-1,-1.011570022E-1,3.639600053E-2,2.236700918E-1
2.390299933E0,-2.086700052E-1,8.899699897E-2,-1.648090035E-1,2.804026471E-1
2.395296548E0,9.898500144E-2,1.964499988E-2,1.970100030E-2,1.028206494E-1
2.400293183E0,1.343750060E-1,-1.279270053E-1,-1.098240018E-1,2.155997966E-1
2.405289798E0,-2.915979922E-1,1.491190046E-1,-9.052500129E-2,3.397950006E-1
2.410286423E0,2.047819942E-1,-3.812399879E-2,1.107110009E-1,2.358941079E-1
2.415283039E0,1.111980006E-1,-1.597300023E-1,-1.553429961E-1,2.490183034E-1
2.420279655E0,-3.173100054E-1,2.039619982E-1,-1.382769942E-1,4.017544815E-1
2.425276026E0,1.699579954E-1,4.883999936E-3,1.274919957E-1,2.125177231E-1
2.430272639E0,2.157649994E-1,-2.592630088E-1,-8.834800124E-2,3.486792395E-1
2.435269255E0,-3.127880096E-1,1.749339998E-1,-2.052530050E-1,4.129976263E-1
2.440265870E0,-6.075299904E-2,2.155169994E-1,5.818000063E-2,2.313512835E-1
2.445262485E0,3.348970115E-1,-3.055410087E-1,7.385000121E-3,4.533937081E-1
2.450259097E0,-5.226099864E-2,-1.432400048E-1,-2.173909992E-1,2.655329687E-1
2.455255712E0,-3.207019866E-1,3.773219883E-1,-8.751200140E-2,5.028717505E-1
2.460252253E0,1.016749963E-1,9.380900115E-2,9.629900008E-2,1.685569073E-1
2.465248846E0,3.111839890E-1,-4.026159942E-1,-5.980600044E-2,5.123591236E-1
2.470245461E0,-9.802799672E-2,-7.829499990E-2,-2.267439961E-1,2.591378686E-1
2.475242077E0,-3.146629930E-1,4.222840071E-1,-7.065299898E-2,5.313458648E-1
2.480238715E0,5.673599988E-2,1.396919936E-1,1.106079966E-1,1.869945338E-1
2.485235331E0,3.130120039E-1,-4.013409913E-1,-1.920500025E-2,5.093328361E-1
2.490231703E0,2.118399926E-2,-2.258259952E-1,-2.101279944E-1,3.091923608E-1
2.495228317E0,-3.059319854E-1,3.473919928E-1,-1.303790063E-1,4.809098269E-1
2.500224927E0,-1.362169981E-1,3.416999876E-1,7.260599732E-2,3.749474403E-1
2.505221542E0,2.533009946E-1,-2.212059945E-1,5.990400165E-2,3.415874343E-1
2.510218158E0,2.441769987E-1,-4.467949867E-1,-1.386899948E-1,5.277149624E-1
2.515214769E0,-1.282690018E-1,-9.369999752E-4,-2.071329951E-1,2.436347522E-1
2.520211385E0,-3.037909865E-1,4.498440027E-1,-6.081400067E-2,5.462114361E-1
2.525208000E0,-4.359799996E-2,2.414990067E-1,9.877000004E-2,2.645336817E-1
2.530204634E0,2.614769936E-1,-3.105309904E-1,5.026800185E-2,4.090557250E-1
2.535201250E0,2.085659951E-1,-4.254429936E-1,-1.289130002E-1,4.910397914E-1
2.540197790E0,-1.177100018E-1,2.569100074E-2,-1.877589971E-1,2.230899214E-1
2.545194404E0,-2.892090082E-1,4.404740036E-1,-6.789000332E-2,5.312892346E-1
2.550191023E0,-8.259099722E-2,2.903890014E-1,7.493200153E-2,3.110656680E-1
2.555187638E0,2.282450050E-1,-2.154890001E-1,5.510000139E-2,3.186962529E-1
2.560184254E0,2.499710023E-1,-4.486150146E-1,-9.557899833E-2,5.223756103E-1
2.565180889E0,-1.741800085E-2,-1.226119995E-1,-1.951729953E-1,2.311484096E-1
2.570177505E0,-2.527070045E-1,3.553789854E-1,-1.324449927E-1,4.557375665E-1
2.575173891E0,-1.808409989E-1,4.088520110E-1,2.489599958E-2,4.477535534E-1
2.580170490E0,1.167740002E-1,-8.933999576E-3,8.150500059E-2,1.426851380E-1
2.585167105E0,2.769080102E-1,-4.153029919E-1,-2.406499907E-2,4.997336744E-1
2.590163715E0,1.221309975E-1,-3.294390142E-1,-1.741790026E-1,3.921535026E-1
2.595160331E0,-1.608300060E-1,1.280789971E-1,-1.876399964E-1,2.783510169E-1
2.600156946E0,-2.616350055E-1,4.381819963E-1,-6.325700134E-2,5.142545928E-1
2.605153567E0,-7.427000254E-2,2.617489994E-1,5.797399953E-2,2.781897852E-1
2.610150107E0,1.903170049E-1,-2.010879964E-1,4.060500115E-2,2.798315757E-1
2.615146721E0,2.461889982E-1,-4.450519979E-1,-8.849799633E-2,5.162481952E-1
2.620143322E0,3.637399897E-2,-2.030960023E-1,-1.857209951E-1,2.776028494E-1
2.625139937E0,-2.106990069E-1,2.580080032E-1,-1.443610042E-1,3.630458660E-1
2.630136562E0,-2.334060073E-1,4.444260001E-1,6.012000144E-3,5.020248778E-1
2.635133177E0,-8.660000167E-4,1.743260026E-1,1.032710001E-1,2.026208395E-1
2.640129779E0,2.361389995E-1,-2.739560008E-1,4.770199955E-2,3.648136486E-1
2.645126165E0,2.261790037E-1,-4.399389923E-1,-9.563600272E-2,5.038347980E-1
2.650122784E0,-5.543000065E-3,-1.434070021E-1,-1.784369946E-1,2.289892009E-1
2.655119630E0,-2.297279984E-1,2.932249904E-1,-1.443849951E-1,3.995032854E-1
2.660116016E0,-2.291350067E-1,4.334949851E-1,-1.084399968E-2,4.904470876E-1
2.665112629E0,5.499999970E-3,1.356920004E-1,7.448799908E-2,1.548903837E-1
2.670109244E0,2.227659971E-1,-3.042730093E-1,2.381199971E-2,3.778541583E-1
2.675105837E0,2.161400020E-1,-4.363319874E-1,-9.067399800E-2,4.953018046E-1
2.680102377E0,-2.852000063E-3,-1.304650009E-1,-1.854290068E-1,2.267447175E-1
2.685099067E0,-2.151750028E-1,2.931059897E-1,-1.370580047E-1,3.885824233E-1
2.690095613E0,-1.988999993E-1,4.094400108E-1,1.321799960E-2,4.553867012E-1
2.695092226E0,2.597999945E-2,1.040190011E-1,1.009410024E-1,1.472548774E-1
2.700088855E0,2.318789959E-1,-3.166550100E-1,3.593799844E-2,3.941190224E-1
2.705085470E0,2.173949927E-1,-4.309700131E-1,-1.216019988E-1,4.977778432E-1
2.710082085E0,-1.835799962E-2,-1.229479983E-1,-1.995700002E-1,2.351199937E-1
2.715078692E0,-2.364889979E-1,2.976559997E-1,-1.344230026E-1,4.032315512E-1
2.720075307E0,-2.232740074E-1,4.254710078E-1,3.878999967E-3,4.805121305E-1
2.725071923E0,-3.459000029E-3,1.402260065E-1,8.200900257E-2,1.624831502E-1
2.730068300E0,2.217350006E-1,-2.785939872E-1,3.132599965E-2,3.574385800E-1
2.735064914E0,2.151899934E-1,-4.151659906E-1,-9.997200221E-2,4.781881787E-1
2.740061515E0,-1.431999961E-3,-1.206249967E-1,-1.780129969E-1,2.150373631E-1
2.745058130E0,-2.043139935E-1,3.045620024E-1,-1.392470002E-1,3.922906426E-1
2.750054675E0,-2.058289945E-1,4.390609860E-1,-1.777499914E-2,4.852381632E-1
2.755051365E0,-1.780000050E-3,1.647190005E-1,6.987000257E-2,1.789338838E-1
2.760047892E0,2.137199938E-1,-2.514739931E-1,2.391000092E-2,3.308883393E-1
2.765044505E0,2.269050032E-1,-4.215390086E-1,-1.050809994E-1,4.901255275E-1
2.770041125E0,2.103899978E-2,-1.671169996E-1,-1.927340031E-1,2.559631360E-1
2.775037741E0,-2.055329978E-1,2.524920106E-1,-1.490750015E-1,3.580773446E-1
2.780034356E0,-2.285670042E-1,4.249269962E-1,-1.545399986E-2,4.827469872E-1
2.785030976E0,-2.268600091E-2,1.851080060E-1,7.944799960E-2,2.027106637E-1
2.790027362E0,2.064380050E-1,-2.353270054E-1,3.346100077E-2,3.148254881E-1
2.795023948E0,2.369949967E-1,-4.236739874E-1,-1.147210002E-1,4.988258052E-1
2.800020563E0,4.472799972E-2,-1.809740067E-1,-2.023919970E-1,2.751630525E-1
2.805017178E0,-1.840000004E-1,2.495689988E-1,-1.659069955E-1,3.516615084E-1
2.810013798E0,-2.282090038E-1,4.390389919E-1,-4.190199822E-2,4.965786577E-1
2.815010413E0,-4.879600182E-2,2.172580063E-1,7.928500324E-2,2.363645550E-1
2.820007020E0,1.895249933E-1,-2.034039944E-1,6.439200044E-2,2.853756082E-1
2.825003635E0,2.357649952E-1,-4.161509871E-1,-5.513200164E-2,4.814626825E-1
2.830000190E0,4.609899968E-2,-2.081190050E-1,-1.476549953E-1,2.593079938E-1
2.834996803E0,-2.016730011E-1,2.195940018E-1,-1.278630048E-1,3.244109631E-1
2.839993442E0,-2.681199908E-1,4.427259862E-1,-1.089300029E-2,5.176999960E-1
2.844990058E0,-6.845399737E-2,2.445899993E-1,8.883800358E-2,2.690769563E-1
2.849986673E0,1.930509955E-1,-1.927639991E-1,5.955399945E-2,2.792370410E-1
2.854983288E0,2.580429912E-1,-4.470919967E-1,-7.439400256E-2,5.215476070E-1
2.859979675E0,7.125800103E-2,-2.553380132E-1,-1.764650047E-1,3.184573779E-1
2.864976304E0,-1.715780050E-1,1.742240041E-1,-1.541649997E-1,2.890672284E-1
2.869972919E0,-2.333579957E-1,4.109120071E-1,-3.470500186E-2,4.738238796E-1
2.874969534E0,-3.656800091E-2,1.794690043E-1,7.460399717E-2,1.977677895E-1
2.879966149E0,2.656809986E-1,-3.027310073E-1,4.303099960E-2,4.050729844E-1
2.884962764E0,1.790080070E-1,-3.417609930E-1,-1.457509995E-1,4.124170180E-1
2.889959360E0,-2.743149996E-1,1.573379934E-1,-1.736969948E-1,3.607971856E-1
2.894955901E0,-2.566399984E-2,1.299799979E-1,6.575399637E-2,1.479088529E-1
2.899952529E0,1.611009985E-1,-1.468140036E-1,-2.797199972E-2,2.197505771E-1
2.904949145E0,-1.425269991E-1,4.302600026E-2,-9.246700257E-2,1.752578921E-1
2.909945745E0,6.870999932E-2,1.403999981E-3,-3.716999898E-3,6.882478704E-2
2.914942361E0,5.417999811E-3,-8.275000378E-3,-5.413499847E-2,5.503115856E-2
2.919938976E0,-5.714999884E-2,4.528199881E-2,-5.889699981E-2,9.373066932E-2
2.924935354E0,1.035429984E-1,-2.295899950E-2,-2.539400011E-2,1.090555979E-1
2.929931967E0,-1.113609970E-1,6.768500060E-2,-6.862299889E-2,1.472808437E-1
2.934928582E0,4.966500029E-2,-4.863999784E-3,-7.816699892E-2,9.273807453E-2
2.939925202E0,6.180199981E-2,-1.604700089E-2,7.609999739E-4,6.385587317E-2
2.944921817E0,-1.638109982E-1,7.130499929E-2,-1.094530001E-1,2.095194628E-1
2.949918438E0,7.651299983E-2,-2.061299980E-2,-9.493900090E-2,1.236630454E-1
2.954914978E0,1.009410024E-1,-4.235899821E-2,3.187400103E-2,1.140145720E-1
2.959911687E0,-1.146510020E-1,4.007099941E-2,-7.356800139E-2,1.419957326E-1
2.964908305E0,-7.074599713E-2,4.173199832E-2,-1.692119986E-1,1.880937433E-1
2.969904852E0,9.248200059E-2,-3.298899904E-2,-3.026900068E-2,1.027492428E-1
2.974901466E0,7.953900099E-2,-4.212899879E-2,4.385700077E-2,1.001236322E-1
2.979898081E0,-1.463599969E-2,1.618899964E-2,-8.309999853E-2,8.591801879E-2
2.984894730E0,-3.253699839E-2,3.202899918E-2,-1.669059992E-1,1.730379311E-1
2.989891346E0,2.999999924E-5,1.460999949E-3,-5.435499921E-2,5.437463895E-2
2.994887731E0,9.964999743E-3,-1.046499982E-2,5.099700019E-2,5.300482496E-2
2.999884345E0,-1.759799942E-2,8.898999542E-3,-1.605900005E-2,2.543173724E-2
3.004880975E0,-1.133599970E-2,1.994900033E-2,-1.333750039E-1,1.353342498E-1
3.009877591E0,6.924000103E-3,1.895800047E-2,-9.027999640E-2,9.250851479E-2
3.014874206E0,-1.499999966E-2,1.542599965E-2,2.698500082E-2,3.451306599E-2
3.019870741E0,-1.894499920E-2,1.621500030E-2,1.258200034E-2,2.793109311E-2
3.024867355E0,1.599599980E-2,2.176499926E-2,-7.603000104E-2,8.068548978E-2
3.029863970E0,2.230899967E-2,2.012900077E-2,-9.765700251E-2,1.021751353E-1
3.034860586E0,-1.498099975E-2,1.401500031E-2,-3.309400007E-2,3.893665918E-2
3.039857207E0,-2.566800080E-2,8.128000423E-3,-9.159999900E-3,2.843969504E-2
3.044853822E0,6.000000212E-6,2.566999989E-3,-6.181899831E-2,6.187227228E-2
3.049850209E0,2.390399948E-2,-2.147000050E-3,-8.336599916E-2,8.675194878E-2
3.054846808E0,1.018599980E-2,-1.346699987E-2,-3.310500085E-2,3.716255856E-2
3.059843423E0,-7.240999956E-3,-1.939100027E-2,2.835999941E-3,2.089224420E-2
3.064840053E0,-1.909999992E-3,-5.979000125E-3,-3.300999850E-2,3.360143663E-2
3.069836669E0,5.435999949E-3,-6.810000050E-4,-8.087299764E-2,8.105834691E-2
3.074833209E0,4.870000121E-4,-9.843000211E-3,-6.649699807E-2,6.722330381E-2
3.079829832E0,-9.065000340E-3,-8.682999760E-3,-2.096500061E-2,2.443562904E-2
3.084826447E0,-1.237999997E-3,-5.479000043E-3,-3.049599938E-2,3.100899972E-2
3.089823062E0,6.041999906E-3,-9.805000387E-3,-7.357200235E-2,7.446800202E-2
3.094819678E0,3.419999965E-3,-3.942000214E-3,-8.071999997E-2,8.088852923E-2
3.099816293E0,5.822999869E-3,3.836000105E-3,-4.957399890E-2,5.006199747E-2
3.104812932E0,5.660000024E-4,6.058999803E-3,-4.001599923E-2,4.047606736E-2
3.109809318E0,5.218000151E-3,1.045299973E-2,-5.918699875E-2,6.032904401E-2
3.114806201E0,1.919000037E-2,1.463299990E-2,-6.400600076E-2,6.840430493E-2
3.119802588E0,8.131000213E-3,1.128599979E-2,-4.252900183E-2,4.474598253E-2
3.124799201E0,-2.017999999E-3,1.045100018E-2,-2.581200004E-2,2.792051351E-2
3.129795802E0,3.034000052E-3,1.432000007E-2,-4.020399973E-2,4.278585225E-2
3.134792342E0,5.183999892E-3,1.550600026E-2,-6.180199981E-2,6.392806175E-2
3.139788942E0,-2.388000023E-3,7.184999995E-3,-5.706499889E-2,5.756510113E-2
3.144785557E0,-4.635000136E-3,1.957000000E-3,-4.031600058E-2,4.062872110E-2
3.149782172E0,5.245999899E-3,4.310000222E-3,-4.749500006E-2,4.797782454E-2
3.154778769E0,1.200800017E-2,1.587999985E-3,-6.188099831E-2,6.305530718E-2
3.159775155E0,1.457000035E-3,-5.539000034E-3,-5.232499912E-2,5.263752372E-2
3.164772000E0,-8.101000451E-3,-5.005999934E-3,-4.272900149E-2,4.377732075E-2
3.169768377E0,-7.493999787E-3,2.634000033E-3,-5.466999859E-2,5.524406515E-2
3.174764991E0,-2.125000115E-3,4.972000141E-3,-7.141800225E-2,7.162239493E-2
3.179761577E0,5.290000117E-4,4.869000055E-3,-6.423000246E-2,6.441645922E-2
3.184758192E0,5.479999818E-4,7.147000171E-3,-5.226400122E-2,5.275325335E-2
3.189754827E0,5.370000144E-4,1.907999977E-3,-5.228000134E-2,5.231756276E-2
3.194751442E0,4.229999904E-4,-5.274000112E-3,-5.707199872E-2,5.731672569E-2
3.199747983E0,2.725000028E-3,-4.540000111E-3,-5.704800040E-2,5.729320706E-2
3.204744596E0,-2.247999888E-3,-1.475999947E-3,-4.745100066E-2,4.752714533E-2
3.209741211E0,-2.129999921E-3,-1.097999979E-3,-4.504099861E-2,4.510470108E-2
3.214737817E0,-2.030000091E-3,-1.043900009E-2,-4.742600024E-2,4.860369453E-2
3.219734432E0,-1.150800008E-2,-1.179100014E-2,-4.738499969E-2,5.016771817E-2
3.224730819E0,-5.706000142E-3,-8.236000314E-3,-4.492300004E-2,4.602679732E-2
3.229727408E0,1.882000011E-3,-4.993000068E-3,-3.770099953E-2,3.807672963E-2
3.234724024E0,-7.709999918E-4,2.736999886E-3,-4.487000033E-2,4.496001044E-2
3.239720639E0,-3.073000116E-3,2.479999966E-4,-4.965899885E-2,4.975460783E-2
3.244717254E0,4.406999797E-3,-6.696000230E-3,-4.485600069E-2,4.556664201E-2
3.249713870E0,4.048999865E-3,-1.076699980E-2,-3.765499964E-2,3.937285464E-2
3.254710410E0,1.312999986E-3,-2.540000016E-3,-3.283600137E-2,3.296025720E-2
3.259707005E0,-1.196000027E-3,-2.216999885E-3,-4.240500182E-2,4.247975616E-2
3.264703620E0,-1.065399963E-2,-1.786999987E-3,-4.717500135E-2,4.839609313E-2
3.269700236E0,-4.925000016E-3,-1.379000023E-3,-3.756099939E-2,3.790759741E-2
3.274696846E0,2.950000053E-4,1.249999972E-3,-3.514499962E-2,3.516845921E-2
3.279693461E0,2.720000048E-4,6.045000162E-3,-3.993599862E-2,4.039183082E-2
3.284689848E0,-2.132999944E-3,8.049000055E-3,-3.755600005E-2,3.846802868E-2
3.289686466E0,-1.942000003E-3,7.478999905E-3,-3.278499842E-2,3.368327366E-2
3.294683082E0,6.189999986E-4,4.546999931E-3,-3.519399837E-2,3.549191303E-2
3.299679673E0,3.070000093E-3,-5.200000014E-4,-3.999099880E-2,4.011203418E-2
3.304676289E0,7.606999949E-3,-7.530000061E-3,-4.238599911E-2,4.371659033E-2
3.309672824E0,1.186200045E-2,-4.354000092E-3,-3.997400030E-2,4.192356225E-2
3.314669437E0,8.670000359E-3,-1.457000035E-3,-3.997600079E-2,4.093131313E-2
3.319666068E0,5.754999816E-3,-5.994000006E-3,-4.716299847E-2,4.788941933E-2
3.324662683E0,6.050000084E-4,-5.330000073E-3,-4.953999817E-2,4.982957299E-2
3.329659318E0,-1.702000038E-3,4.964000080E-3,-5.429900065E-2,5.455198963E-2
3.334655704E0,5.874999799E-3,1.189500000E-2,-4.950999841E-2,5.125667362E-2
3.339652318E0,5.609999876E-3,6.244999822E-3,-5.194300041E-2,5.261698787E-2
3.344648923E0,2.872999990E-3,3.377000103E-3,-5.436300114E-2,5.454350696E-2
3.349645538E0,2.769999905E-3,7.619999815E-4,-5.197999999E-2,5.205933098E-2
3.354642154E0,2.779999981E-3,1.522599999E-2,-5.436899886E-2,5.652917399E-2
3.359638689E0,2.585999900E-3,2.366700023E-2,-5.441400036E-2,5.939442508E-2
3.364635303E0,2.301000059E-3,1.941299997E-2,-4.969999939E-2,5.340645194E-2
3.369632005E0,4.532999825E-3,2.040000074E-2,-4.975700006E-2,5.396727872E-2
3.374628545E0,6.572999991E-3,2.119800076E-2,-4.982199892E-2,5.454164594E-2
3.379625164E0,1.322599966E-2,1.484800037E-2,-5.228599906E-2,5.593939470E-2
3.384621779E0,9.731000289E-3,4.160999786E-3,-5.234999955E-2,5.340906981E-2
3.389618390E0,-3.143999958E-3,1.469000010E-3,-5.477600172E-2,5.488581840E-2
3.394615005E0,-5.330000073E-3,-9.860000573E-4,-5.237999931E-2,5.265971349E-2
3.399611620E0,-2.442999976E-3,-7.379999734E-4,-4.517700151E-2,4.524902604E-2
3.404608017E0,-7.000999991E-3,-2.927999943E-3,-4.995099828E-2,5.052414683E-2
3.409604631E0,-8.763999678E-3,-2.521000104E-3,-5.231799930E-2,5.310683744E-2
3.414601246E0,-5.578000098E-3,-7.036999799E-3,-5.229000002E-2,5.305541964E-2
3.419597870E0,6.909999996E-3,-1.355800033E-2,-4.985899851E-2,5.212952335E-2
3.424594411E0,6.349000148E-3,-2.663000021E-3,-4.982500151E-2,5.029843086E-2
3.429591024E0,1.048999955E-3,5.005999934E-3,-4.503099993E-2,4.532054050E-2
3.434587640E0,9.830000345E-4,2.321999986E-3,-4.743700102E-2,4.750396866E-2
3.439584255E0,9.239999927E-4,4.563000053E-3,-4.744400084E-2,4.767187810E-2
3.444580880E0,-4.017999861E-3,1.923999982E-3,-4.506200179E-2,4.528167515E-2
3.449577267E0,-1.332900021E-2,-3.910000087E-4,-4.744699970E-2,4.928521998E-2
3.454573880E0,-7.366999984E-3,4.575999919E-3,-4.022999853E-2,4.115416438E-2
3.459570491E0,-9.217999876E-3,9.096000344E-3,-3.304500133E-2,3.549198299E-2
3.464567106E0,-6.140000187E-3,1.799700037E-2,-4.502400011E-2,4.887486276E-2
3.469563727E0,-8.009999874E-4,1.898800023E-2,-4.506300017E-2,4.890664309E-2
3.474560342E0,1.688000048E-3,1.031399984E-2,-4.032500088E-2,4.165733588E-2
3.479556882E0,6.347999908E-3,2.369999886E-3,-4.275000095E-2,4.328367572E-2
3.484553505E0,1.071599964E-2,-2.489000093E-3,-4.515499994E-2,4.647581941E-2
3.489550120E0,9.820999578E-3,-6.924999878E-3,-4.037500173E-2,4.212538926E-2
3.494546521E0,6.597999949E-3,-8.705000393E-3,-4.037199914E-2,4.182354540E-2
3.499543134E0,1.362000010E-3,-7.938999683E-3,-4.035399854E-2,4.115006632E-2
3.504539980E0,1.364000025E-3,-1.192199998E-2,-3.793299943E-2,3.978576410E-2
3.509536348E0,-9.319999954E-4,-1.556899957E-2,-5.225599930E-2,5.453395121E-2
3.514532961E0,4.073000047E-3,-1.167399995E-2,-5.219500139E-2,5.363944234E-2
3.519529572E0,6.155000068E-3,-8.113999851E-3,-4.018900171E-2,4.145934006E-2
3.524526112E0,-3.934999928E-3,-4.898999818E-3,-4.735400155E-2,4.776908924E-2
3.529522808E0,-1.173999975E-3,4.569999874E-4,-5.450800061E-2,5.452255731E-2
3.534519348E0,-1.033999957E-3,1.006300002E-2,-5.211099982E-2,5.308379628E-2
3.539515967E0,-9.059999720E-4,9.362000041E-3,-5.452600121E-2,5.533129936E-2
3.544512582E0,1.714000013E-3,3.938999958E-3,-5.693599954E-2,5.709782448E-2
3.549509197E0,8.902000263E-3,6.277000066E-3,-4.975700006E-2,5.093530596E-2
3.554505813E0,1.524200011E-2,1.214000047E-3,-4.260500148E-2,4.526564387E-2
3.559502428E0,-1.041300036E-2,8.534999564E-3,-3.306199983E-2,3.569835608E-2
3.564498815E0,-6.229199842E-2,3.184499964E-2,-5.700900033E-2,9.024645803E-2
3.569495433E0,-1.522000041E-2,1.479499973E-2,-7.850400358E-2,8.132293040E-2
3.574492049E0,1.545100063E-1,-5.806199834E-2,2.913000062E-3,1.650848972E-1
3.579488579E0,2.293399908E-2,-1.726699993E-2,9.939000010E-3,3.037929100E-2
3.584485192E0,-2.189549953E-1,8.942200243E-2,-1.816020012E-1,2.981893213E-1
3.589481808E0,9.344899654E-2,-3.481199965E-2,-7.842800021E-2,1.268682052E-1
3.594478423E0,3.973999992E-3,-1.948300004E-2,8.190999925E-2,8.428895505E-2
3.599475039E0,-3.259899840E-2,6.450000219E-4,-4.975099862E-2,5.948338075E-2
3.604471664E0,8.983799815E-2,-2.090699971E-2,-1.071470007E-1,1.413805090E-1
3.609468051E0,-2.748999931E-2,7.679999806E-3,-1.048400030E-1,1.086559187E-1
3.614464664E0,3.965999931E-3,-1.918000053E-3,5.355000030E-3,6.934255907E-3
3.619461293E0,1.520899963E-2,-1.853000000E-2,1.492100023E-2,2.823669275E-2
3.624457909E0,-4.634900019E-2,3.317600116E-2,-8.322799951E-2,1.008750553E-1
3.629454509E0,1.038950011E-1,-2.438200079E-2,-5.449099839E-2,1.198245473E-1
3.634451050E0,-5.769399926E-2,2.108399943E-2,-9.290300310E-2,1.113736978E-1
3.639447682E0,1.890300028E-2,1.487800013E-2,3.883299977E-2,4.568019460E-2
3.644444297E0,6.764700264E-2,-5.604699999E-2,-7.857099921E-2,1.178591748E-1
3.649440927E0,-1.875140071E-1,1.237030029E-1,-1.168359965E-1,2.532085817E-1
3.654437542E0,2.431669980E-1,-8.981899917E-2,4.359399900E-2,2.628651333E-1
3.659434158E0,-1.267040074E-1,-9.030000074E-4,-1.457419991E-1,1.931203024E-1
3.664430530E0,-1.186370030E-1,1.264230013E-1,2.209999971E-2,1.747739218E-1
3.669427144E0,3.105750084E-1,-1.621569991E-1,-6.777999923E-3,3.504249841E-1
3.674423684E0,-1.991319954E-1,4.555600137E-2,-2.319259942E-1,3.090607831E-1
3.679420279E0,-1.220100001E-1,1.787829995E-1,4.845900089E-2,2.218063926E-1
3.684416971E0,3.313480020E-1,-2.219319940E-1,5.294800177E-2,4.023043614E-1
3.689413520E0,-1.203299984E-1,-5.510599911E-2,-2.247550040E-1,2.608271295E-1
3.694410134E0,-2.560310066E-1,2.855130136E-1,-4.475900158E-2,3.860996316E-1
3.699406764E0,2.662509978E-1,-1.240999997E-1,1.081089973E-1,3.130143112E-1
3.704403380E0,1.412339956E-1,-2.864100039E-1,-1.314699948E-1,3.453434397E-1
3.709399766E0,-3.305900097E-1,2.461300045E-1,-1.403820068E-1,4.354042277E-1
3.714396370E0,-7.731200010E-2,2.541010082E-1,9.171400219E-2,2.809909712E-1
3.719392985E0,3.219409883E-1,-3.181500137E-1,3.604599833E-2,4.540536809E-1
3.724389600E0,3.906299919E-2,-2.410230041E-1,-1.814929992E-1,3.042329948E-1
3.729386117E0,-3.256770074E-1,3.429340124E-1,-1.113199964E-1,4.858614943E-1
3.734382730E0,-7.294999808E-2,2.657949924E-1,9.890600294E-2,2.928328493E-1
3.739379356E0,3.042570055E-1,-3.218170106E-1,2.883500047E-2,4.438129910E-1
3.744375971E0,1.258209944E-1,-3.328140080E-1,-1.814929992E-1,3.994193226E-1
3.749372348E0,-2.701910138E-1,2.399529964E-1,-1.518760026E-1,3.919782450E-1
3.754369192E0,-2.064259946E-1,3.944210112E-1,4.658000171E-2,4.476039789E-1
3.759365573E0,1.962309927E-1,-1.107179970E-1,7.932300121E-2,2.388665231E-1
3.764362187E0,2.709470093E-1,-4.556840062E-1,-8.595500141E-2,5.370739778E-1
3.769358802E0,-7.486099750E-2,-8.833900094E-2,-1.879590005E-1,2.207635248E-1
3.774355413E0,-2.932989895E-1,4.297339916E-1,-7.496599853E-2,5.256572094E-1
3.779351953E0,-6.266800314E-2,2.973310053E-1,9.420800209E-2,3.181322885E-1
3.784348643E0,2.703740001E-1,-2.571400106E-1,5.514200032E-2,3.771786383E-1
3.789345175E0,2.311770022E-1,-4.293810129E-1,-1.218160018E-1,5.026430134E-1
3.794341788E0,-9.934099764E-2,-1.894999994E-3,-1.926620007E-1,2.167737792E-1
3.799338175E0,-2.892990112E-1,4.440369904E-1,-7.752799988E-2,5.356055988E-1
3.804335014E0,-9.470599890E-2,3.056170046E-1,6.766100228E-2,3.270305658E-1
3.809331401E0,2.195799947E-1,-2.159139961E-1,5.259399861E-2,3.124105575E-1
3.814328014E0,2.395440042E-1,-4.489920139E-1,-9.088099748E-2,5.169473031E-1
3.819324614E0,-3.433699906E-2,-1.134129986E-1,-1.832700074E-1,2.182416857E-1
3.824321230E0,-2.633930147E-1,3.709050119E-1,-1.061829999E-1,4.671415604E-1
3.829317780E0,-1.714610010E-1,3.990890086E-1,5.592000112E-2,4.379474377E-1
3.834314394E0,1.325280070E-1,-4.897899926E-2,1.005740017E-1,1.734293655E-1
3.839311004E0,2.747560143E-1,-4.424369931E-1,-2.885200083E-2,5.216069385E-1
3.844307620E0,1.035130024E-1,-3.016639948E-1,-1.764699966E-1,3.644965941E-1
3.849304235E0,-1.850129962E-1,1.870869994E-1,-1.732150018E-1,3.150155408E-1
3.854300622E0,-2.551369965E-1,4.443520010E-1,-3.462199867E-2,5.135584393E-1
3.859297245E0,-2.046200074E-2,1.838130057E-1,9.138999879E-2,2.062960165E-1
3.864293860E0,2.396769971E-1,-2.939899862E-1,4.061599821E-2,3.814771739E-1
3.869290476E0,2.269250005E-1,-4.295110106E-1,-1.242029965E-1,5.013990910E-1
3.874287081E0,-3.869099915E-2,-8.089999855E-2,-1.974329948E-1,2.168446232E-1
3.879283697E0,-2.577579916E-1,3.576709926E-1,-1.180429980E-1,4.564009975E-1
3.884280224E0,-1.927009970E-1,4.061549902E-1,3.449700028E-2,4.508720365E-1
3.889276837E0,9.621299803E-2,7.751999889E-3,8.872800320E-2,1.311094697E-1
3.894273224E0,2.748430073E-1,-3.928709924E-1,-1.923999935E-2,4.798504694E-1
3.899269846E0,1.488620043E-1,-3.473599851E-1,-1.646340042E-1,4.122174316E-1
3.904266462E0,-1.340339929E-1,8.291900158E-2,-1.804839969E-1,2.396145763E-1
3.909263086E0,-2.587459981E-1,4.232710004E-1,-6.558199972E-2,5.004086630E-1
3.914259702E0,-9.794999659E-2,2.938160002E-1,6.764499843E-2,3.170140212E-1
3.919256336E0,1.758099943E-1,-1.596779972E-1,6.937500089E-2,2.474249536E-1
3.924252876E0,2.592299879E-1,-4.383020103E-1,-5.981399864E-2,5.127246369E-1
3.929249490E0,5.568600073E-2,-2.378190011E-1,-1.690549999E-1,2.970494924E-1
3.934246100E0,-2.072519958E-1,2.189230025E-1,-1.467700005E-1,3.352940557E-1
3.939242716E0,-2.492009997E-1,4.421519935E-1,-2.022100054E-2,5.079452849E-1
3.944239331E0,-2.477700077E-2,1.818079948E-1,8.423600346E-2,2.019003493E-1
3.949235718E0,2.261659950E-1,-2.789539993E-1,4.305399954E-2,3.616905278E-1
3.954232321E0,2.265329957E-1,-4.277360141E-1,-1.050259992E-1,4.952835112E-1
3.959228937E0,-1.739799976E-2,-1.058529988E-1,-1.878509969E-1,2.163227791E-1
3.964225477E0,-2.382380068E-1,3.443189859E-1,-1.179969981E-1,4.350128774E-1
3.969222158E0,-1.795479953E-1,4.131099880E-1,3.215299919E-2,4.515873782E-1
3.974218699E0,9.628500044E-2,3.087200038E-2,9.829899669E-2,1.410197662E-1
3.979215321E0,2.772920132E-1,-3.788129985E-1,-1.519999932E-4,4.694573160E-1
3.984211937E0,1.560029984E-1,-3.585590124E-1,-1.575669944E-1,4.215790064E-1
3.989208323E0,-1.322010010E-1,6.067299843E-2,-1.877570003E-1,2.375100179E-1
3.994204937E0,-2.737129927E-1,4.174520075E-1,-6.559299678E-2,5.034753442E-1
3.999201783E0,-1.236059964E-1,3.100500107E-1,7.245799899E-2,3.415547000E-1
4.004198092E0,1.617890000E-1,-1.400319934E-1,8.137200028E-2,2.289236601E-1
4.009194783E0,2.535730004E-1,-4.395250082E-1,-5.263900012E-2,5.101493543E-1
4.014191313E0,6.487999856E-2,-2.509590089E-1,-1.762399971E-1,3.134491585E-1
4.019187927E0,-2.012459934E-1,2.141450047E-1,-1.611090004E-1,3.351330227E-1
4.024184542E0,-2.461600006E-1,4.403100014E-1,-2.736799978E-2,5.051897174E-1
4.029181153E0,-7.710000034E-3,1.681499928E-1,7.947900146E-2,1.861471887E-1
4.034177769E0,2.394009978E-1,-3.010230064E-1,3.351299837E-2,3.860709898E-1
4.039174159E0,2.242790014E-1,-4.215449989E-1,-1.073369980E-1,4.894103469E-1
4.044170773E0,-4.579500109E-2,-6.894700229E-2,-1.853660047E-1,2.030059776E-1
4.049167388E0,-2.617760003E-1,3.660390079E-1,-1.107970029E-1,4.634514057E-1
4.054164004E0,-1.771429926E-1,3.898569942E-1,3.932899982E-2,4.300173089E-1
4.059160619E0,1.129219979E-1,-2.641399950E-2,8.160399646E-2,1.418036996E-1
4.064157234E0,2.758829892E-1,-4.145460129E-1,-2.629699931E-2,4.986495289E-1
4.069153775E0,1.260839999E-1,-3.191579878E-1,-1.620199978E-1,3.794858046E-1
4.074150388E0,-1.645250022E-1,1.493739933E-1,-1.731189936E-1,2.816935430E-1
4.079146990E0,-2.604809999E-1,4.577029943E-1,-4.881000146E-2,5.288901574E-1
4.084143376E0,-4.933699965E-2,2.416120023E-1,8.193200082E-2,2.598525581E-1
4.089139990E0,2.227459997E-1,-2.481590062E-1,5.020099878E-2,3.372222013E-1
4.094136605E0,2.424439937E-1,-4.402889907E-1,-1.027560011E-1,5.130226907E-1
4.099133221E0,-1.492999960E-2,-1.173409969E-1,-1.999479979E-1,2.323166294E-1
4.104129836E0,-2.504340112E-1,3.434599936E-1,-1.276639998E-1,4.438243549E-1
4.109126362E0,-2.026289999E-1,4.099380076E-1,3.208800033E-2,4.584073750E-1
4.114122976E0,8.235000074E-2,1.829399914E-2,8.871400356E-2,1.224188199E-1
4.119119581E0,2.620480061E-1,-3.950879872E-1,-9.677000344E-3,4.741912267E-1
4.124116197E0,1.443500072E-1,-3.421649933E-1,-1.526439935E-1,4.015146273E-1
4.129112583E0,-1.381639987E-1,1.043469980E-1,-1.804759949E-1,2.500983233E-1
4.134109202E0,-2.744899988E-1,4.308649898E-1,-4.408900067E-2,5.127701618E-1
4.139105817E0,4.865000024E-3,1.571229994E-1,1.035190001E-1,1.882219131E-1
4.144102432E0,2.965719998E-1,-3.279210031E-1,2.486000070E-3,4.421462603E-1
4.149099048E0,-9.460899979E-2,-7.499500364E-2,-1.982139945E-1,2.320859777E-1
4.154095588E0,-1.535110027E-1,1.786739975E-1,-2.538199909E-2,2.369267212E-1
4.159092221E0,1.782799959E-1,-6.629599631E-2,-6.473000161E-3,1.903176708E-1
4.164088836E0,-8.362600207E-2,2.319799922E-2,-1.167579964E-1,1.454781259E-1
4.169085456E0,2.432500012E-2,1.927099936E-2,-2.805900015E-2,4.183759717E-2
4.174081843E0,3.430299833E-2,-1.799199916E-2,-4.012599960E-2,5.577188873E-2
4.179078456E0,-7.386499643E-2,4.113699868E-2,-7.364899665E-2,1.121270042E-1
4.184075072E0,1.123490036E-1,-3.628899902E-2,-2.333400026E-2,1.203481018E-1
4.189071687E0,-1.011269987E-1,5.070000142E-2,-6.175300106E-2,1.288820901E-1
4.194068233E0,2.319199964E-2,-3.756999969E-3,-9.281399846E-2,9.574143412E-2
4.199064846E0,1.144630015E-1,-4.372800142E-2,1.250599977E-2,1.231678402E-1
4.204061462E0,-1.521120071E-1,6.042800099E-2,-6.900099665E-2,1.776252897E-1
4.209058092E0,-3.907999955E-3,1.003499981E-2,-1.191319972E-1,1.196177514E-1
4.214054707E0,1.358859986E-1,-5.249800161E-2,2.453099936E-2,1.477254708E-1
4.219051308E0,-2.522600070E-2,9.282000363E-3,-1.940999995E-3,2.694947352E-2
4.224047694E0,-1.024560034E-1,4.919699952E-2,-1.455810070E-1,1.846927367E-1
4.229044303E0,1.197000034E-3,4.879999906E-3,-8.562099934E-2,8.576830846E-2
4.234040918E0,6.897900254E-2,-3.597899899E-2,5.564799905E-2,9.565192605E-2
4.239037459E0,1.212400012E-2,-1.184600033E-2,-6.661000196E-3,1.821230425E-2
4.244034068E0,-3.759099916E-2,2.260800079E-2,-1.598960012E-1,1.658039086E-1
4.249030683E0,-7.521000225E-3,1.438099984E-2,-1.167529970E-1,1.178755315E-1
4.254027299E0,1.057999954E-2,-5.439000204E-3,2.690600045E-2,2.941856512E-2
4.259023685E0,-7.199999876E-3,1.810000045E-3,3.885500133E-2,3.955789715E-2
4.264020299E0,-4.335000180E-3,1.787799969E-2,-9.044600278E-2,9.229785761E-2
4.269016918E0,2.290900052E-2,1.183000021E-2,-1.383540034E-1,1.407359282E-1
4.274013534E0,-2.059999970E-4,-4.119999940E-4,-4.981499910E-2,4.981712874E-2
4.279010154E0,-2.930499986E-2,2.278000116E-3,5.253000185E-3,2.985910769E-2
4.284006769E0,3.724999959E-3,1.960000023E-3,-4.977799952E-2,4.995564494E-2
4.289003320E0,2.030299976E-2,6.630999967E-3,-1.000659987E-1,1.023200179E-1
4.293999933E0,4.844000097E-3,1.582999947E-3,-6.179400161E-2,6.200378102E-2
4.298996320E0,-1.195999980E-2,1.535000047E-3,-1.869999990E-2,2.225056890E-2
4.303992942E0,-8.778000250E-3,3.749999916E-3,-4.502400011E-2,4.602473654E-2
4.308989558E0,1.094499975E-2,6.064999849E-3,-8.571700007E-2,8.662552363E-2
4.313986173E0,1.739599928E-2,1.334000030E-3,-6.657800078E-2,6.882608906E-2
4.318982794E0,6.494999863E-3,-8.619999862E-4,-2.111200057E-2,2.210530785E-2
4.323979409E0,-6.054999772E-3,1.566000050E-3,-1.872999966E-2,1.974660137E-2
4.328975968E0,6.510000210E-3,-1.007999992E-3,-6.899999827E-2,6.931374992E-2
4.333972582E0,1.546000014E-3,4.184999969E-3,-8.574900031E-2,8.586498352E-2
4.338969226E0,-1.503400039E-2,6.591999903E-3,-5.222599953E-2,5.474514278E-2
4.343965613E0,-1.141200028E-2,6.291000172E-3,-3.784399852E-2,4.002472558E-2
4.348962202E0,3.733000020E-3,1.183000044E-3,-5.938399956E-2,5.951297490E-2
4.353958818E0,1.304399967E-2,-8.310000412E-3,-6.178199872E-2,6.368844009E-2
4.358955433E0,1.218899991E-2,-2.614999888E-3,-3.543100134E-2,3.756016239E-2
4.363952033E0,-7.220000261E-4,4.904000089E-3,-2.825899981E-2,2.869044390E-2
4.368948574E0,1.720999950E-3,-2.139999997E-4,-4.981800169E-2,4.984817879E-2
4.373945187E0,1.367899962E-2,-3.799999831E-5,-6.896500289E-2,7.030852081E-2
4.378941803E0,5.491000134E-3,7.468999829E-3,-6.418800354E-2,6.485396549E-2
4.383938189E0,-4.389999900E-3,4.736999981E-3,-4.744999856E-2,4.788751018E-2
4.388934813E0,-1.489000046E-3,-5.096999928E-3,-5.223499984E-2,5.250420685E-2
4.393931659E0,1.170999953E-3,1.889999985E-4,-7.136400044E-2,7.137385740E-2
4.398928045E0,-5.929999985E-3,2.789000049E-3,-7.135400176E-2,7.165428800E-2
4.403924653E0,-5.237999838E-3,3.760000109E-4,-4.261000082E-2,4.293239090E-2
4.408921268E0,-9.560000151E-3,4.780000017E-4,-4.498799890E-2,4.599502291E-2
4.413917809E0,-6.324000191E-3,5.789999850E-4,-6.412000209E-2,6.443370925E-2
4.418914432E0,6.254000124E-3,7.280000136E-4,-5.931000039E-2,5.964326155E-2
4.423911048E0,1.305700000E-2,8.500000113E-4,-5.213199928E-2,5.374898230E-2
4.428907429E0,1.207899954E-2,8.123000152E-3,-4.496999830E-2,4.726717792E-2
4.433904043E0,6.277999841E-3,7.567000110E-3,-5.219699815E-2,5.311496388E-2
4.438900658E0,8.275999688E-3,7.079000119E-3,-5.701100081E-2,5.804186960E-2
4.443897292E0,7.718000095E-3,4.253999796E-3,-4.506700113E-2,4.592056871E-2
4.448893833E0,9.999999975E-7,4.029000178E-3,-4.030000046E-2,4.050089975E-2
4.453890451E0,-4.668000154E-3,1.309999963E-3,-4.509700090E-2,4.535687175E-2
4.458887067E0,-4.139000084E-3,1.337000052E-3,-5.226700008E-2,5.244767095E-2
4.463883453E0,3.540999955E-3,-1.010000007E-3,-4.986000061E-2,4.999578424E-2
4.468880067E0,-1.412000041E-3,-5.557000171E-3,-4.506700113E-2,4.543026069E-2
4.473876682E0,-5.950999912E-3,-2.546000062E-3,-5.461600050E-2,5.499821840E-2
4.478873292E0,1.781999948E-3,-4.550000187E-3,-5.937699974E-2,5.957773177E-2
4.483869908E0,1.680999994E-3,-1.580000040E-3,-5.935800076E-2,5.940281487E-2
4.488866443E0,-6.990000256E-4,3.528000088E-3,-5.216399953E-2,5.228784020E-2
4.493863057E0,1.897000009E-3,9.929999942E-4,-4.737599939E-2,4.742436058E-2
4.498859672E0,4.261999857E-3,3.448999953E-3,-5.455600098E-2,5.483080782E-2
4.503856273E0,1.133100037E-2,5.716999993E-3,-5.456500128E-2,5.602155855E-2
4.508852660E0,8.111000061E-3,1.018499956E-2,-5.459399894E-2,5.612510364E-2
4.513849283E0,-2.118000062E-3,1.187499985E-2,-5.224300176E-2,5.361746710E-2
4.518845898E0,-6.688999943E-3,1.102000009E-2,-4.747999832E-2,4.919891628E-2
4.523842438E0,-8.375000209E-3,7.826000452E-3,-4.988399893E-2,5.118398442E-2
4.528839048E0,-7.515999954E-3,4.912999924E-3,-5.467300117E-2,5.540545894E-2
4.533835663E0,-2.036999911E-3,7.052999921E-3,-5.706100166E-2,5.753131397E-2
4.538832259E0,6.849999772E-4,6.622999907E-3,-6.185600162E-2,6.221332887E-2
4.543828874E0,3.184000030E-3,6.140000187E-3,-5.947599933E-2,5.987680648E-2
4.548825489E0,5.462999921E-3,9.030000074E-4,-4.512900114E-2,4.546742264E-2
4.553821891E0,2.726000035E-3,-3.924999852E-3,-4.513999820E-2,4.539224755E-2
4.558818504E0,5.014999770E-3,-3.449999960E-3,-5.470100045E-2,5.503864254E-2
4.563815134E0,2.338000108E-3,-5.274999887E-3,-5.229400098E-2,5.261135245E-2
4.568811674E0,7.067999803E-3,1.270000066E-4,-4.748599976E-2,4.800930039E-2
4.573808274E0,6.591000129E-3,5.053999834E-3,-4.509700090E-2,4.585546518E-2
4.578804889E0,-1.027000020E-3,2.365000080E-3,-5.229999870E-2,5.236351610E-2
4.583801276E0,-8.999999845E-4,-4.858000204E-3,-5.469299853E-2,5.491570134E-2
4.588797879E0,-5.568000022E-3,-6.666999776E-3,-5.466900021E-2,5.535477481E-2
4.593794494E0,-1.530000009E-4,-1.137000043E-3,-5.462799966E-2,5.464004507E-2
4.598791125E0,-2.490000101E-3,1.522999955E-3,-4.743399844E-2,4.752371868E-2
4.603787740E0,-2.246000106E-3,6.326999981E-3,-4.982199892E-2,5.027232859E-2
4.608784272E0,2.872999990E-3,8.332000114E-3,-5.222300068E-2,5.296147802E-2
4.613780885E0,7.559000049E-3,-1.797999954E-3,-5.224499851E-2,5.281960957E-2
4.618777510E0,-2.526999917E-3,-8.661000058E-3,-5.463699996E-2,5.537689424E-2
4.623774125E0,-9.352000430E-3,-2.954999916E-3,-4.741499946E-2,4.841873718E-2
4.628770512E0,-1.235999982E-3,-1.590000029E-4,-4.259200022E-2,4.261022717E-2
4.633767116E0,6.175999995E-3,-2.406999934E-3,-4.736899957E-2,4.783052106E-2
4.638763731E0,9.909999790E-4,2.360000071E-4,-4.736800119E-2,4.737895434E-2
4.643760267E0,-3.746999893E-3,3.619999916E-4,-4.257500172E-2,4.274110227E-2
4.648756880E0,-8.194000460E-3,4.630000039E-4,-4.256400093E-2,4.334801250E-2
4.653753496E0,-2.681999933E-3,2.949000103E-3,-4.493699968E-2,4.511345326E-2
4.658750111E0,-2.325000009E-3,-1.949999947E-3,-4.732700065E-2,4.742418281E-2
4.663746726E0,2.979999990E-4,-6.527999882E-3,-4.970800132E-2,5.013570565E-2
4.668743118E0,-2.086000051E-3,-9.200000204E-4,-4.967699945E-2,4.972928786E-2
4.673739731E0,-1.872000052E-3,-2.977000084E-3,-5.444899946E-2,5.456244548E-2
4.678736262E0,5.516000092E-3,-4.945000168E-3,-5.203400180E-2,5.255869697E-2
4.683732952E0,7.579999976E-3,2.824000083E-3,-4.723300040E-2,4.792063963E-2
4.688729493E0,4.668999929E-3,5.123999901E-3,-4.724700004E-2,4.775284230E-2
4.693726116E0,4.298999906E-3,2.437999938E-3,-4.966000095E-2,4.990531974E-2
4.698722503E0,6.355000194E-3,9.699999646E-5,-5.685099959E-2,5.720517102E-2
4.703719116E0,8.252000436E-3,2.659999882E-4,-5.685500056E-2,5.745134772E-2
4.708715727E0,7.695999928E-3,9.998999536E-3,-4.728600010E-2,4.894051708E-2
4.713712267E0,7.269000169E-3,1.168600004E-2,-4.492799938E-2,4.698857402E-2
4.718708952E0,6.771000102E-3,1.248999964E-3,-4.975799844E-2,5.023210977E-2
4.723705493E0,3.829000052E-3,1.296999981E-3,-5.216500163E-2,5.232141861E-2
4.728702111E0,3.538999939E-3,8.531000465E-3,-4.977599904E-2,5.062561180E-2
4.733698727E0,5.663000047E-3,7.953999564E-3,-4.740900174E-2,4.840401971E-2
4.738695113E0,2.916000085E-3,1.320000010E-4,-4.743799940E-2,4.752772104E-2
4.743691727E0,-4.383000080E-3,-7.017999887E-3,-5.222800002E-2,5.287936268E-2
4.748688342E0,-6.258000154E-3,-1.464999979E-3,-4.979399964E-2,5.020708308E-2
4.753684952E0,1.494999975E-3,3.602999961E-3,-5.216699839E-2,5.231264048E-2
4.758681493E0,-5.671999883E-3,8.139999583E-3,-5.696399882E-2,5.782152141E-2
4.763678120E0,-3.400000060E-5,4.349999945E-4,-5.935600027E-2,5.935760397E-2
4.768674736E0,2.895599976E-2,-1.606900059E-2,-5.694799870E-2,6.587668220E-2
4.773671122E0,2.390000038E-2,-1.210800000E-2,-4.019200057E-2,4.830331864E-2
4.778667722E0,-4.820600152E-2,2.018800005E-2,-4.021000117E-2,6.594102003E-2
4.783664337E0,-1.085819975E-1,4.490799829E-2,-8.566000313E-2,1.454111915E-1
4.788660936E0,6.976500154E-2,-1.378700044E-2,-6.159500033E-2,9.408071474E-2
4.793657477E0,1.955959946E-1,-6.985700130E-2,5.562900007E-2,2.150171607E-1
4.798654090E0,-1.456120014E-1,6.491400301E-2,-7.147499919E-2,1.747150774E-1
4.803650706E0,-4.398300126E-2,3.819499910E-2,-1.838960052E-1,1.929017964E-1
4.808647092E0,8.975700289E-2,-2.399099991E-2,2.442199923E-2,9.606415404E-2
4.813643914E0,-1.024670005E-1,3.283900023E-2,1.472499967E-2,1.086034610E-1
4.818640300E0,8.793500066E-2,-2.060399950E-2,-5.223000050E-2,1.043315009E-1
4.823636914E0,-2.472599968E-2,2.182899974E-2,-1.289519966E-1,1.331033347E-1
4.828633463E0,6.856000051E-3,-9.970000247E-4,-5.471299961E-2,5.514989639E-2
4.833630153E0,1.623000018E-3,-1.978899911E-2,-2.037999919E-3,1.995976098E-2
4.838626703E0,-5.895800143E-2,2.718999982E-2,-3.073200025E-2,7.183173298E-2
4.843623316E0,9.932299703E-2,-4.219000041E-2,-8.337000012E-2,1.363657244E-1
4.848619699E0,-1.147190034E-1,5.028900132E-2,-1.241199970E-1,1.763383312E-1
4.853616312E0,1.182570010E-1,-4.694499820E-2,5.075899884E-2,1.369854997E-1
4.858612928E0,-6.652899832E-2,-9.797999635E-3,-9.060300142E-2,1.128317875E-1
4.863609459E0,-6.120999902E-2,6.784000248E-2,-4.255900159E-2,1.007978102E-1
4.868606073E0,2.152439952E-1,-1.172109991E-1,-6.416399777E-2,2.533484052E-1
4.873602688E0,-2.410320044E-1,9.668300301E-2,-1.312440038E-1,2.909794129E-1
4.878599312E0,1.148900017E-1,7.430000231E-3,1.155539975E-1,1.631184960E-1
4.883595928E0,1.389299929E-1,-1.349080056E-1,-1.001880020E-1,2.180352005E-1
4.888592328E0,-3.039940000E-1,1.689310074E-1,-1.742510051E-1,3.889902955E-1
4.893588942E0,1.846839935E-1,-1.497900020E-2,9.640999883E-2,2.088718166E-1
4.898585567E0,1.719119996E-1,-2.054280043E-1,-9.784500301E-2,2.851807237E-1
4.903582183E0,-3.243429959E-1,2.026389986E-1,-1.502020061E-1,4.108790398E-1
4.908578723E0,7.677000016E-2,9.467700124E-2,8.683999628E-2,1.496614594E-1
4.913575331E0,3.028840125E-1,-3.084360063E-1,-6.442999840E-2,4.370614598E-1
4.918571947E0,-2.182569951E-1,5.573200062E-2,-1.933290064E-1,2.968472276E-1
4.923568333E0,-1.875949949E-1,3.099710047E-1,5.352900177E-2,3.662502695E-1
4.928564942E0,3.021320105E-1,-1.952729970E-1,6.971599907E-2,3.664363732E-1
4.933561482E0,1.334670037E-1,-2.939330041E-1,-1.840829998E-1,3.716135127E-1
4.938558173E0,-3.205690086E-1,2.682960033E-1,-1.498329937E-1,4.440688693E-1
4.943554713E0,-1.063129976E-1,2.790459991E-1,1.013230011E-1,3.153339081E-1
4.948551326E0,3.120270073E-1,-3.072949946E-1,5.521199852E-2,4.414061982E-1
4.953547942E0,1.136899963E-1,-3.124899864E-1,-1.958719939E-1,3.859290671E-1
4.958544329E0,-2.931199968E-1,2.729699910E-1,-1.686860025E-1,4.346112239E-1
4.963540927E0,-1.697299927E-1,3.600549996E-1,7.520700246E-2,4.050974776E-1
4.968537542E0,2.465700060E-1,-1.996220052E-1,8.882900327E-2,3.294484856E-1
4.973534158E0,2.331259996E-1,-4.176009893E-1,-1.361429989E-1,4.972657581E-1
4.978530703E0,-1.575179994E-1,6.652999669E-2,-2.022430003E-1,2.648403137E-1
4.983527317E0,-2.778300047E-1,4.563510120E-1,-2.497499995E-2,5.348546609E-1
4.988523923E0,4.472000152E-2,1.326519996E-1,1.201890036E-1,1.845042767E-1
4.993520538E0,3.041769862E-1,-4.030120075E-1,2.386000007E-3,5.049237666E-1
4.998516944E0,1.112750024E-1,-3.112879992E-1,-2.004909962E-1,3.866251209E-1
5.003513480E0,-2.377530038E-1,2.477670014E-1,-1.660989970E-1,3.814496751E-1
5.008510182E0,-2.339950055E-1,4.470730126E-1,2.267800085E-2,5.051160588E-1
5.013506722E0,1.062619984E-1,2.113799937E-2,9.359800071E-2,1.431747640E-1
5.018503307E0,2.936170101E-1,-4.357019961E-1,-3.597500175E-2,5.266321095E-1
5.023499922E0,8.463899791E-2,-2.834869921E-1,-1.908289939E-1,3.520572959E-1
5.028496309E0,-2.287759930E-1,2.443719953E-1,-1.588740051E-1,3.705362014E-1
5.033492918E0,-2.331099957E-1,4.438590109E-1,5.942999851E-3,5.013844941E-1
5.038489533E0,7.122699916E-2,7.564800233E-2,9.122999758E-2,1.382708144E-1
5.043486139E0,2.854950130E-1,-4.001689851E-1,-1.688000001E-2,4.918613153E-1
5.048482679E0,1.444569975E-1,-3.515560031E-1,-1.766300052E-1,4.191152660E-1
5.053479293E0,-1.739629954E-1,1.391229928E-1,-1.828660071E-1,2.881983821E-1
5.058475903E0,-2.737540007E-1,4.531509876E-1,-3.934900090E-2,5.308817329E-1
5.063472519E0,-3.038899973E-2,2.134090066E-1,8.186099678E-2,2.305821290E-1
5.068468891E0,2.473729998E-1,-2.907289863E-1,3.341599926E-2,3.831884308E-1
5.073465505E0,2.147080004E-1,-4.311720133E-1,-1.170549989E-1,4.956921456E-1
5.078462120E0,-6.421899796E-2,-4.894899949E-2,-1.926459968E-1,2.088840931E-1
5.083458640E0,-2.715040147E-1,3.986899853E-1,-1.061429977E-1,4.938972265E-1
5.088455254E0,-1.647190005E-1,3.694120049E-1,5.108699948E-2,4.076854916E-1
5.093451869E0,1.432950050E-1,-8.810900152E-2,7.904700190E-2,1.858630762E-1
5.098448251E0,2.725580037E-1,-4.374809861E-1,-4.789099842E-2,5.176591797E-1
5.103444864E0,8.213300258E-2,-2.706680000E-1,-1.787360013E-1,3.345946121E-1
5.108441495E0,-2.047390044E-1,2.177000046E-1,-1.635770053E-1,3.406886974E-1
5.113438035E0,-2.517369986E-1,4.506370127E-1,-1.787300035E-2,5.164926697E-1
5.118434653E0,-7.740000146E-4,1.656280011E-1,9.853900224E-2,1.927256308E-1
5.123431269E0,2.480980009E-1,-3.081440032E-1,3.580600023E-2,3.972246397E-1
5.128427884E0,2.129790038E-1,-4.184960127E-1,-1.265899986E-1,4.863373278E-1
5.133424271E0,-5.861699954E-2,-3.979599848E-2,-1.878570020E-1,2.007733233E-1
5.138420884E0,-2.663969994E-1,3.927629888E-1,-9.899800271E-2,4.847996815E-1
5.143417425E0,-1.526920050E-1,3.593110144E-1,5.585600063E-2,3.943845158E-1
5.148414038E0,1.519899964E-1,-8.777099848E-2,8.621899784E-2,1.955464722E-1
5.153410654E0,2.661469877E-1,-4.300160110E-1,-4.313199967E-2,5.075513355E-1
5.158407273E0,7.638200372E-2,-2.566919923E-1,-1.787720025E-1,3.220006495E-1
5.163403888E0,-2.027090043E-1,2.184959948E-1,-1.684370041E-1,3.423484548E-1
5.168400280E0,-2.497619987E-1,4.442900121E-1,-3.230899945E-2,5.107039674E-1
5.173396893E0,-1.194000011E-3,1.598140001E-1,7.933799922E-2,1.784277400E-1
5.178393434E0,2.550449967E-1,-3.183299899E-1,2.380800061E-2,4.085936291E-1
5.183390042E0,2.146510035E-1,-4.062019885E-1,-1.385670006E-1,4.798707351E-1
5.188386658E0,-7.863800228E-2,-9.325000457E-3,-2.046599984E-1,2.194461346E-1
5.193383273E0,-2.703689933E-1,4.086700082E-1,-1.015049964E-1,5.004136613E-1
5.198379874E0,-1.396510005E-1,3.498980105E-1,4.613500088E-2,3.795516539E-1
5.203376261E0,1.543769985E-1,-1.180339977E-1,6.932800263E-2,2.063265718E-1
5.208372874E0,2.683460116E-1,-4.408909976E-1,-5.036300048E-2,5.185854660E-1
5.213369415E0,5.684300140E-2,-2.474360019E-1,-1.835789979E-1,3.133000962E-1
5.218366134E0,-2.278230041E-1,2.389419973E-1,-1.588799953E-1,3.663870252E-1
5.223362675E0,-2.369190007E-1,4.412919879E-1,-1.080000028E-2,5.009849015E-1
5.228359278E0,3.679500148E-2,1.139850020E-1,8.408299834E-2,1.463434434E-1
5.233355665E0,2.610689998E-1,-3.601740003E-1,1.424499974E-2,4.450676950E-1
5.238352278E0,1.818609983E-1,-3.941609859E-1,-1.432179958E-1,4.571079739E-1
5.243348894E0,-1.158739999E-1,4.011899978E-2,-1.949049979E-1,2.302700072E-1
5.248345509E0,-2.780430019E-1,4.202579856E-1,-8.466699719E-2,5.109727838E-1
5.253342049E0,-1.011480018E-1,3.030329943E-1,6.536100060E-2,3.260858388E-1
5.258338663E0,1.992200017E-1,-1.727900058E-1,6.946299970E-2,2.727088255E-1
5.263335278E0,2.591100037E-1,-4.431219995E-1,-7.170800120E-2,5.183021685E-1
5.268331908E0,1.956400089E-2,-1.679300070E-1,-1.928929985E-1,2.564974585E-1
5.273328294E0,-2.474800050E-1,3.163869977E-1,-1.348620057E-1,4.237155246E-1
5.278324836E0,-2.022960037E-1,4.019719958E-1,3.215499967E-2,4.511530811E-1
5.283321528E0,1.043049991E-1,-5.648999941E-3,8.641099930E-2,1.355666067E-1
5.288318069E0,2.798599899E-1,-4.169999957E-1,-2.871399932E-2,5.030259478E-1
5.293314677E0,1.104630008E-1,-3.046270013E-1,-1.716189981E-1,3.666780126E-1
5.298311064E0,-2.003249973E-1,1.914329976E-1,-1.707649976E-1,3.254802321E-1
5.303307677E0,-2.571589947E-1,4.434269965E-1,-2.019000053E-2,5.129969648E-1
5.308304278E0,1.832300052E-2,1.398819983E-1,9.624599665E-2,1.707805541E-1
5.313300894E0,2.728739977E-1,-3.460749984E-1,2.157399990E-2,4.412409326E-1
5.318297419E0,1.854829937E-1,-3.813050091E-1,-1.431230009E-1,4.475283726E-1
5.323294033E0,-1.365080029E-1,6.612999737E-2,-1.900639981E-1,2.431705878E-1
5.328290405E0,-2.801389992E-1,4.439930022E-1,-6.551499665E-2,5.290556300E-1
5.333287019E0,-6.005400047E-2,2.576999962E-1,8.205199987E-2,2.770348384E-1
5.338283653E0,2.465630025E-1,-2.645629942E-1,4.549999908E-2,3.644957366E-1
5.343280268E0,2.092889994E-1,-3.595159948E-1,-1.361750066E-1,4.377182521E-1
5.348276828E0,-2.248930037E-1,1.458410025E-1,-2.024269998E-1,3.358915768E-1
5.353273441E0,-1.289689988E-1,2.391510010E-1,2.019800059E-2,2.724594706E-1
5.358269828E0,2.532480061E-1,-1.378359944E-1,1.732099988E-2,2.888482837E-1
5.363266437E0,-1.178049967E-1,1.023999974E-2,-1.479530036E-1,1.894016001E-1
5.368263053E0,1.931199990E-2,2.429199964E-2,-1.365900040E-2,3.390608911E-2
5.373259683E0,8.152999915E-3,-1.365599968E-2,-6.883700192E-2,7.065048173E-2
5.378256299E0,-1.620900072E-2,4.492000211E-3,-7.118900120E-2,7.314905100E-2
5.383252839E0,2.585100010E-2,-2.199999988E-2,-4.003899917E-2,5.249186275E-2
5.388249457E0,-7.180300355E-2,3.028799966E-2,-1.094399989E-1,1.343508377E-1
5.393246073E0,1.357659996E-1,-4.369999841E-2,-1.599499956E-2,1.435198122E-1
5.398242459E0,-1.348980069E-1,6.295199692E-2,-6.880699843E-2,1.639964305E-1
5.403239073E0,2.357899956E-2,2.669000067E-3,-9.744700044E-2,1.002946194E-1
5.408235688E0,1.364780068E-1,-4.980799928E-2,1.025099959E-2,1.456439705E-1
5.413232229E0,-1.274030060E-1,5.727399886E-2,-5.931099877E-2,1.517551694E-1
5.418228818E0,-6.057599932E-2,4.054699838E-2,-1.525940001E-1,1.691107319E-1
5.423225433E0,1.325220019E-1,-4.619000107E-2,-6.504999939E-3,1.404916802E-1
5.428221829E0,4.626499861E-2,-2.793899924E-2,3.405699879E-2,6.388205493E-2
5.433218442E0,-8.794599771E-2,4.367199913E-2,-1.120179966E-1,1.489623227E-1
5.438214988E0,-3.895400092E-2,3.805800155E-2,-1.526499987E-1,1.620735875E-1
5.443211678E0,3.516000137E-2,-1.484099962E-2,-1.137899980E-2,3.982414597E-2
5.448208242E0,2.034400031E-2,-2.331900038E-2,3.647699952E-2,4.783540134E-2
5.453204626E0,-2.035900019E-2,1.654900052E-2,-9.520199895E-2,9.875109574E-2
5.458201240E0,-1.139899995E-2,1.562899910E-2,-1.550489962E-1,1.562510609E-1
5.463197865E0,1.159400027E-2,-3.868000116E-3,-5.207800120E-2,5.349299465E-2
5.468194481E0,-1.101899985E-2,-8.053000085E-3,3.650400043E-2,3.897192855E-2
5.473191086E0,-1.053099986E-2,-6.130000111E-4,-3.290599957E-2,3.455549934E-2
5.478187626E0,2.170399949E-2,8.805000223E-3,-1.142890006E-1,1.166643360E-1
5.483184240E0,6.252999883E-3,1.328999992E-3,-8.798900247E-2,8.822092044E-2
5.488180631E0,-2.498600073E-2,6.279999856E-3,-1.855299994E-2,3.174826669E-2
5.493177476E0,-1.360999979E-2,8.193000220E-3,-2.331800014E-2,2.821500447E-2
5.498173862E0,2.313699946E-2,3.800000122E-4,-9.275300056E-2,9.559594268E-2
5.503170399E0,1.907300018E-2,3.246000037E-3,-8.559300005E-2,8.775236470E-2
5.508167014E0,-1.077700034E-2,9.469999932E-4,-2.097200043E-2,2.359799457E-2
5.513163644E0,-2.402999997E-2,5.611999892E-3,-1.616100036E-2,2.949768421E-2
5.518160030E0,-5.245999899E-3,9.759999812E-3,-7.599300146E-2,7.679657793E-2
5.523156874E0,9.762999602E-3,9.158000350E-3,-9.275899827E-2,9.371988526E-2
5.528153280E0,1.967000077E-3,3.975000232E-3,-4.490200058E-2,4.512049836E-2
5.533149893E0,-6.740000099E-4,1.380000031E-3,-2.097400092E-2,2.103015432E-2
5.538146415E0,3.938999958E-3,5.907000042E-3,-5.690100044E-2,5.734223767E-2
5.543143028E0,1.359999995E-3,5.472000223E-3,-8.565100282E-2,8.583639479E-2
5.548139396E0,-7.911999710E-3,5.840000231E-4,-6.170500070E-2,6.221292395E-2
5.553136009E0,-1.185599994E-2,3.119000001E-3,-3.294999897E-2,3.515672522E-2
5.558132625E0,-6.157000083E-3,1.013800036E-2,-4.490499943E-2,4.644509313E-2
5.563129235E0,3.762000008E-3,-1.659999980E-4,-6.886699796E-2,6.896987464E-2
5.568125775E0,1.222999999E-3,-4.621999804E-3,-5.688599870E-2,5.708656111E-2
5.573122404E0,-1.121000038E-3,3.237999976E-3,-3.531200066E-2,3.547786177E-2
5.578119019E0,8.554000407E-3,5.363000091E-3,-4.729200155E-2,4.835768918E-2
5.583115406E0,1.263799984E-2,2.551000100E-3,-7.126600295E-2,7.242285425E-2
5.588112019E0,1.173400041E-2,1.599999960E-4,-6.649699807E-2,6.752453716E-2
5.593108560E0,3.711000085E-3,3.560000041E-4,-4.975099862E-2,4.989048127E-2
5.598105178E0,3.427000018E-3,5.268999841E-3,-5.214799941E-2,5.252542747E-2
5.603101794E0,6.740000099E-4,1.900000061E-4,-5.934900045E-2,5.935313160E-2
5.608098409E0,3.167999908E-3,-4.428999964E-3,-6.173500046E-2,6.197469279E-2
5.613094810E0,7.650000043E-4,3.327999962E-3,-5.692699924E-2,5.702932624E-2
5.618091423E0,-3.934999928E-3,5.508999806E-3,-5.214399844E-2,5.258164962E-2
5.623087973E0,1.230999944E-3,2.803999931E-3,-5.453800038E-2,5.462390742E-2
5.628084587E0,5.954000168E-3,2.735000104E-3,-5.693899840E-2,5.731474402E-2
5.633081202E0,7.885999978E-3,5.071000196E-3,-4.737500101E-2,4.829383770E-2
5.638077842E0,9.740999900E-3,2.387000015E-3,-4.021399841E-2,4.144575390E-2
5.643074228E0,4.236000124E-3,4.701999947E-3,-5.459799990E-2,5.496357061E-2
5.648070837E0,-3.165999893E-3,9.363000281E-3,-6.657999754E-2,6.730962340E-2
5.653067377E0,-2.719999989E-3,1.365699992E-2,-5.940400064E-2,6.101432077E-2
5.658063996E0,-4.722000100E-3,5.588999949E-3,-4.984999821E-2,5.038409001E-2
5.663060611E0,-6.674999837E-3,-1.814999967E-3,-4.506099969E-2,4.558885325E-2
5.668056998E0,1.104000024E-3,8.720000042E-4,-5.700699985E-2,5.702435648E-2
5.673053625E0,8.341999725E-3,3.370000049E-3,-5.460900068E-2,5.534517879E-2
5.678050240E0,2.981999889E-3,3.356999950E-3,-4.264999926E-2,4.288571101E-2
5.683046842E0,-1.936999965E-3,8.069999749E-4,-4.983999953E-2,4.988415350E-2
5.688043382E0,-4.025999922E-3,7.869999972E-4,-5.701800063E-2,5.716537799E-2
5.693039996E0,1.156999962E-3,3.288999898E-3,-5.939900130E-2,5.950123969E-2
5.698036372E0,3.505999921E-3,5.688999780E-3,-5.461199954E-2,5.501933522E-2
5.703032986E0,8.559999987E-4,5.810000002E-4,-5.463000014E-2,5.463979514E-2
5.708029601E0,3.324999940E-3,-6.481999997E-3,-5.941199884E-2,5.985697582E-2
5.713026142E0,8.030000026E-4,-5.741000175E-3,-5.459899828E-2,5.490586950E-2
5.718022755E0,3.272000002E-3,-2.578000072E-3,-4.499299824E-2,4.518541755E-2
5.723019365E0,-1.671000035E-3,-2.214000095E-3,-4.259100184E-2,4.268123095E-2
5.728015752E0,-8.689999580E-3,-1.997000072E-3,-4.975999892E-2,5.055256269E-2
5.733012356E0,-5.410999991E-3,6.179999909E-4,-5.451900139E-2,5.479034913E-2
5.738008972E0,-7.191000041E-3,3.128000069E-3,-5.689499900E-2,5.743288063E-2
5.743005512E0,3.158000065E-3,-1.751999953E-3,-5.448599905E-2,5.460555430E-2
5.748002135E0,7.823999971E-3,9.619999910E-4,-4.968899861E-2,5.031040650E-2
5.752998750E0,7.288000081E-3,5.824999884E-3,-4.730600119E-2,4.821725124E-2
5.757995385E0,9.186999872E-3,-3.996000160E-3,-4.971899837E-2,5.071831802E-2
5.762991772E0,3.747999901E-3,-5.787999835E-3,-5.210699886E-2,5.256127639E-2
5.767988375E0,-1.217999961E-3,6.841999944E-3,-5.448200181E-2,5.492344680E-2
5.772984916E0,6.217000075E-3,1.636000001E-3,-4.491300136E-2,4.537075354E-2
5.777981529E0,1.023999997E-3,4.029999953E-3,-4.731800035E-2,4.750034350E-2
5.782978145E0,-1.217999961E-3,6.225999910E-3,-5.929199979E-2,5.963042711E-2
5.787974531E0,1.438000007E-3,3.480999963E-3,-5.690399930E-2,5.702850464E-2
5.792971150E0,1.469000010E-3,1.054199971E-2,-5.690800026E-2,5.789483753E-2
5.797967765E0,-5.688999780E-3,7.422000170E-3,-5.693399906E-2,5.769688947E-2
5.802964306E0,-3.650000144E-4,-2.613000106E-3,-5.933199823E-2,5.939063065E-2
5.807960919E0,9.401000105E-3,1.889999985E-4,-5.691999942E-2,5.769142794E-2
5.812957534E0,-8.290000260E-4,2.743999939E-3,-5.453300104E-2,5.460828672E-2
5.817953924E0,-6.089999806E-4,2.840000088E-4,-5.453100055E-2,5.453514058E-2
5.822950537E0,4.375999793E-3,2.825000091E-3,-5.452099815E-2,5.476923625E-2
5.827947065E0,4.149000160E-3,5.146999843E-3,-5.931600183E-2,5.968327976E-2
5.832943678E0,3.951000050E-3,4.889000207E-3,-5.693800002E-2,5.728392943E-2
5.837940294E0,3.766000038E-3,2.251999918E-3,-5.694999918E-2,5.711879434E-2
5.842936899E0,-3.689999925E-3,-1.579999953E-4,-5.934999883E-2,5.946480829E-2
5.847933286E0,-1.050100010E-2,3.899999865E-5,-6.412400305E-2,6.497815242E-2
5.852929899E0,-7.139000110E-3,-4.554000217E-3,-6.170000136E-2,6.227836228E-2
5.857926421E0,-1.572999987E-3,8.169999928E-4,-5.447800085E-2,5.450682888E-2
5.862923034E0,-1.393000013E-3,-1.476999954E-3,-5.686400086E-2,5.690023349E-2
5.867919407E0,8.352999575E-3,-5.962000228E-3,-5.924500152E-2,6.012726714E-2
5.872916020E0,7.790000178E-3,-4.729999928E-4,-4.965500161E-2,5.026457019E-2
5.877912654E0,2.364000073E-3,4.513000138E-3,-4.966200143E-2,4.992264068E-2
5.882909270E0,1.176900044E-2,-5.050000036E-4,-5.207100138E-2,5.338682966E-2
5.887905834E0,6.113000214E-3,-2.692000009E-3,-5.208300054E-2,5.250956657E-2
5.892902448E0,-1.449999982E-3,7.278000005E-3,-5.207699910E-2,5.260309515E-2
5.897899063E0,1.212000032E-3,6.711000111E-3,-5.209099874E-2,5.253549863E-2
5.902895450E0,3.646000056E-3,-3.382999916E-3,-4.971399903E-2,4.996218275E-2
5.907892063E0,9.730000165E-4,1.850000001E-3,-4.970499873E-2,4.974893092E-2
5.912888687E0,9.239999927E-4,4.240999930E-3,-5.210199952E-2,5.228248474E-2
5.917885228E0,9.879999561E-4,-7.479999913E-4,-5.449999869E-2,5.451408538E-2
5.922881841E0,3.441999899E-3,4.275999963E-3,-5.209799856E-2,5.238638175E-2
5.927878228E0,3.182000015E-3,6.467999890E-3,-5.450399965E-2,5.497859697E-2
5.932874841E0,5.549999769E-4,3.795000026E-3,-5.451999977E-2,5.465473836E-2
5.937871466E0,-1.844999962E-3,-3.539999947E-3,-5.452600121E-2,5.467193460E-2
5.942868006E0,-1.537999953E-3,-6.719999947E-4,-5.689600110E-2,5.692075166E-2
5.947864615E0,5.820999853E-3,1.153600030E-2,-5.927700177E-2,6.066898945E-2
5.952861001E0,2.977000084E-3,3.550000023E-3,-5.452800170E-2,5.472447349E-2
5.957857621E0,-1.921999967E-3,-3.765000030E-3,-6.411200017E-2,6.425120913E-2
5.962854236E0,7.987000048E-3,1.546000014E-3,-6.408400089E-2,6.459830846E-2
5.967850851E0,2.678999910E-3,1.613999950E-3,-5.451700091E-2,5.460664268E-2
5.972847392E0,-4.583999980E-3,6.434000097E-3,-5.691400170E-2,5.745966414E-2
5.977844005E0,7.510000141E-4,1.084700041E-2,-5.691400170E-2,5.794329132E-2
5.982840392E0,5.524000153E-3,1.487999968E-2,-5.694200099E-2,5.911277734E-2
5.987837005E0,2.705000108E-3,1.377900038E-2,-5.220500007E-2,5.406052080E-2
5.992833546E0,2.229999955E-4,5.574999843E-3,-5.224300176E-2,5.254009502E-2
5.997830159E0,3.440000000E-4,4.720000143E-4,-5.703999847E-2,5.704298858E-2
6.002826775E0,-4.532000050E-3,-4.178000148E-3,-6.182499975E-2,6.213151619E-2
6.007823385E0,-8.867999539E-3,5.841000006E-3,-6.419099867E-2,6.506337685E-2
6.012819772E0,4.354000092E-3,3.034000052E-3,-5.938800052E-2,5.962463483E-2
6.017816375E0,6.680800021E-2,-2.348499931E-2,-4.741900042E-2,8.522567503E-2
6.022812990E0,5.837199837E-2,-3.088299930E-2,-3.072099946E-2,7.283426150E-2
6.027809536E0,-1.200919971E-1,2.933900058E-2,-6.667300314E-2,1.404569474E-1
6.032805921E0,-1.379799992E-1,5.104599893E-2,-1.431210041E-1,2.052505688E-1
6.037802765E0,1.987060010E-1,-7.724399865E-2,7.902000099E-3,2.133381161E-1
6.042799151E0,2.547400072E-2,-1.817999966E-2,6.038499996E-2,6.801312609E-2
6.047795765E0,-1.086599976E-1,4.272000119E-2,-1.646880060E-1,2.018765289E-1
6.052792315E0,1.121520028E-1,-2.959099971E-2,-9.273099899E-2,1.485016403E-1
6.057788929E0,-7.915899903E-2,2.853599936E-2,-1.382999960E-2,8.527437643E-2
6.062785544E0,5.437200144E-2,-2.664599940E-2,1.735799946E-2,6.298907818E-2
6.067782125E0,-8.039000444E-3,1.128000021E-2,-8.563400060E-2,8.674702295E-2
6.072778512E0,5.042000208E-3,2.973099984E-2,-1.000000015E-1,1.044478550E-1
6.077775043E0,5.085900053E-2,-2.508700080E-2,-4.739800096E-2,7.390917426E-2
6.082771659E0,-7.569500059E-2,2.978700027E-2,-1.929000020E-3,8.136780408E-2
6.087768288E0,1.148570031E-1,-5.426099896E-2,-2.343199961E-2,1.291721556E-1
6.092764904E0,-1.392109990E-1,6.049200147E-2,-1.575639993E-1,2.187816225E-1
6.097761290E0,1.029570028E-1,-1.827000082E-2,1.733100042E-2,1.059919852E-1
6.102757885E0,1.331000007E-3,-3.591899946E-2,-7.378499955E-2,8.207418743E-2
6.107754425E0,-1.596509963E-1,1.156409979E-1,-3.058799915E-2,1.994916207E-1
6.112751115E0,2.588610053E-1,-1.168370023E-1,-1.385799982E-2,2.843447720E-1
6.117747685E0,-1.817920059E-1,4.643800110E-2,-2.103189975E-1,2.818490767E-1
6.122744070E0,-6.305900216E-2,1.029120013E-1,4.370100051E-2,1.283631381E-1
6.127740688E0,2.681899965E-1,-1.789200008E-1,1.478500012E-2,3.227333840E-1
6.132737303E0,-2.502779961E-1,8.269199729E-2,-2.246160060E-1,3.463082325E-1
6.137733815E0,-5.867899954E-2,1.551939994E-1,3.421499953E-2,1.694079946E-1
6.142730428E0,3.297840059E-1,-2.362049967E-1,2.190599963E-2,4.062390476E-1
6.147726815E0,-1.743540019E-1,-3.265999956E-3,-2.054689974E-1,2.694948860E-1
6.152723437E0,-2.218050063E-1,2.848759890E-1,-8.778999560E-3,3.611493607E-1
6.157720053E0,3.094809949E-1,-1.630209982E-1,5.784999952E-2,3.545433042E-1
6.162716593E0,1.066640019E-1,-2.378170043E-1,-1.864829957E-1,3.204840785E-1
6.167713207E0,-3.332790136E-1,2.980029881E-1,-1.284379959E-1,4.651634128E-1
6.172709822E0,-7.995000109E-3,1.888400018E-1,1.083059981E-1,2.178408950E-1
6.177706209E0,3.470390141E-1,-3.612450063E-1,-4.765999969E-3,5.009558330E-1
6.182702822E0,-1.232699957E-2,-1.653960049E-1,-2.270070016E-1,2.811404847E-1
6.187699437E0,-3.271259964E-1,3.786979914E-1,-9.952300042E-2,5.102238859E-1
6.192695978E0,7.174999919E-3,1.692869961E-1,1.273799986E-1,2.119793191E-1
6.197692582E0,3.105069995E-1,-3.863550127E-1,2.360000042E-3,4.956716273E-1
6.202688969E0,3.316999972E-2,-2.291180044E-1,-2.293159962E-1,3.258544690E-1
6.207685582E0,-2.973540127E-1,3.468849957E-1,-1.447860003E-1,4.792823750E-1
6.212682118E0,-1.163410023E-1,3.174009919E-1,9.170600027E-2,3.502693377E-1
6.217678731E0,2.762250006E-1,-2.530280054E-1,7.184600085E-2,3.814253142E-1
6.222675347E0,2.147839963E-1,-4.089440107E-1,-1.458469927E-1,4.843952047E-1
6.227671962E0,-1.839559972E-1,8.158499748E-2,-2.047600001E-1,2.870933269E-1
6.232668349E0,-2.828010023E-1,4.532330036E-1,-3.228500113E-2,5.351998540E-1
6.237664981E0,4.499299824E-2,1.296910048E-1,1.129079983E-1,1.777423491E-1
6.242661521E0,2.947610021E-1,-4.106040001E-1,-9.899999714E-5,5.054500005E-1
6.247658140E0,1.193170026E-1,-3.396629989E-1,-1.861830056E-1,4.053043443E-1
6.252654755E0,-2.256399989E-1,2.073989958E-1,-1.708710045E-1,3.508912263E-1
6.257651142E0,-2.516430020E-1,4.436340034E-1,-1.140999957E-3,5.100359118E-1
6.262647769E0,6.855999678E-2,7.543999702E-2,9.854000062E-2,1.417808098E-1
6.267644310E0,2.829380035E-1,-4.026690125E-1,-1.435500011E-2,4.923436945E-1
6.272640923E0,1.037079990E-1,-3.204469979E-1,-1.860650033E-1,3.847880104E-1
6.277637315E0,-2.184469998E-1,1.986120045E-1,-1.707880050E-1,3.410782355E-1
6.282633928E0,-2.497520000E-1,4.620499909E-1,-1.779500023E-2,5.255310815E-1
6.287630525E0,3.944899887E-2,1.305709928E-1,9.141100198E-2,1.641979871E-1
6.292627065E0,2.826389968E-1,-3.738470078E-1,7.145999931E-3,4.687189489E-1
6.297623682E0,1.775539964E-1,-3.780060112E-1,-1.599009931E-1,4.471937989E-1
6.302620069E0,-1.510300040E-1,9.329900146E-2,-1.828960031E-1,2.548837259E-1
6.307616663E0,-2.743589878E-1,4.497199953E-1,-5.840700120E-2,5.300304766E-1
6.312613204E0,-4.761499912E-2,2.486709952E-1,8.436500281E-2,2.668743257E-1
6.317609817E0,2.315009981E-1,-2.656469941E-1,5.021499842E-2,3.559249692E-1
6.322606404E0,2.289129943E-1,-4.537959993E-1,-1.098899990E-1,5.200074805E-1
6.327603019E0,-4.873799905E-2,-8.654599637E-2,-1.926389933E-1,2.167380533E-1
6.332599406E0,-2.668370008E-1,3.906979859E-1,-1.084259972E-1,4.853896353E-1
6.337596053E0,-1.602340043E-1,3.884469867E-1,4.882499948E-2,4.230246779E-1
6.342592668E0,1.404290050E-1,-8.266200125E-2,7.193599641E-2,1.781238319E-1
6.347589179E0,2.699399889E-1,-4.468359947E-1,-5.261899903E-2,5.246892059E-1
6.352585792E0,7.505699992E-2,-2.576439977E-1,-1.786410064E-1,3.223764754E-1
6.357582174E0,-2.110960037E-1,2.414640039E-1,-1.611209959E-1,3.589238962E-1
6.362578787E0,-2.336069942E-1,4.507859945E-1,-1.787300035E-2,5.080351215E-1
6.367575403E0,4.213700071E-2,1.178819984E-1,9.372799844E-2,1.563861569E-1
6.372572004E0,2.730189860E-1,-3.663069904E-1,1.906800084E-2,4.572567841E-1
6.377568545E0,1.807190031E-1,-3.926169872E-1,-1.503680050E-1,4.576221079E-1
6.382565158E0,-1.359650046E-1,6.791999936E-2,-1.876820028E-1,2.415039191E-1
6.387561540E0,-2.796449959E-1,4.456169903E-1,-6.553500146E-2,5.301609777E-1
6.392558076E0,-6.927900016E-2,2.567870021E-1,7.723899931E-2,2.769566885E-1
6.397554711E0,2.260590047E-1,-2.486339957E-1,5.268000066E-2,3.401422053E-1
6.402551326E0,2.312150002E-1,-4.287660122E-1,-1.026699990E-1,4.978371202E-1
6.407547965E0,-5.860799924E-2,-5.174199864E-2,-1.879010051E-1,2.035163869E-1
6.412544352E0,-2.711740136E-1,4.056909978E-1,-9.661000222E-2,4.974475087E-1
6.417540965E0,-1.380120069E-1,3.495729864E-1,5.822100118E-2,3.803133863E-1
6.422537506E0,1.870650053E-1,-1.469600052E-1,6.225699931E-2,2.458993560E-1
6.427534119E0,2.695319951E-1,-4.482850134E-1,-8.375299722E-2,5.297372124E-1
6.432530487E0,2.747999970E-3,-1.534090042E-1,-1.953729987E-1,2.484199724E-1
6.437527100E0,-2.702200115E-1,3.512029946E-1,-1.349779963E-1,4.632293789E-1
6.442523716E0,-1.872600019E-1,3.930689991E-1,3.198599815E-2,4.365691817E-1
6.447520317E0,1.466819942E-1,-7.364600152E-2,7.907599956E-2,1.821876908E-1
6.452516858E0,2.828420103E-1,-4.480830133E-1,-4.790899903E-2,5.320462966E-1
6.457513270E0,4.855100065E-2,-2.396640033E-1,-1.883189976E-1,3.086423156E-1
6.462509884E0,-2.473589927E-1,2.796910107E-1,-1.516509950E-1,4.030031725E-1
6.467506429E0,-2.165839970E-1,4.211399853E-1,1.070200000E-2,4.736898224E-1
6.472503119E0,9.121199697E-2,1.187600009E-2,8.407399803E-2,1.246158293E-1
6.477499660E0,2.846390009E-1,-4.272899926E-1,-2.149499953E-2,5.138658712E-1
6.482496034E0,1.099520028E-1,-3.070139885E-1,-1.787589937E-1,3.718895130E-1
6.487492648E0,-2.103600055E-1,2.180249989E-1,-1.707130075E-1,3.477487066E-1
6.492489263E0,-2.471629977E-1,4.510520101E-1,-8.231000043E-3,5.143979127E-1
6.497485805E0,4.656499997E-2,9.189999849E-2,9.620700032E-2,1.409599087E-1
6.502482418E0,2.772800028E-1,-3.947820067E-1,2.465999918E-3,4.824345696E-1
6.507479024E0,1.416330040E-1,-3.348860145E-1,-1.740529984E-1,4.031166044E-1
6.512475410E0,-1.886119992E-1,1.757750064E-1,-1.803490072E-1,3.146380516E-1
6.517472024E0,-2.608950138E-1,4.530879855E-1,-2.734700032E-2,5.235482683E-1
6.522468639E0,2.441100031E-2,1.272680014E-1,8.907400072E-2,1.572489069E-1
6.527465179E0,2.760680020E-1,-3.719750047E-1,1.203299966E-2,4.633829290E-1
6.532461774E0,1.572829932E-1,-3.571709991E-1,-1.621679962E-1,4.226198309E-1
6.537458160E0,-1.742260009E-1,1.409769952E-1,-1.827919930E-1,2.892094834E-1
6.542454774E0,-2.715939879E-1,4.548409879E-1,-3.687899932E-2,5.310401860E-1
6.547451314E0,2.594999969E-3,1.622830033E-1,8.672499657E-2,1.840210103E-1
6.552447928E0,2.704690099E-1,-3.518939912E-1,1.681200042E-2,4.441458203E-1
6.557444333E0,1.760980040E-1,-3.770250082E-1,-1.598439962E-1,4.457672789E-1
6.562440947E0,-1.546480060E-1,1.036679968E-1,-1.995999962E-1,2.729527758E-1
6.567437562E0,-2.823939919E-1,4.495509863E-1,-6.077399850E-2,5.343556258E-1
6.572434192E0,-2.382799983E-2,2.125010043E-1,8.201800287E-2,2.290227133E-1
6.577430732E0,2.653470039E-1,-3.059299886E-1,3.355899826E-2,4.063599350E-1
6.582427117E0,2.097129971E-1,-4.116710126E-1,-1.336659938E-1,4.809565071E-1
6.587423744E0,-1.311299950E-1,4.549799860E-2,-1.901569963E-1,2.354247792E-1
6.592420359E0,-2.992730141E-1,4.227569997E-1,-5.835999921E-2,5.212424650E-1
6.597416900E0,7.793600112E-2,8.506499976E-2,9.889700264E-2,1.519562160E-1
6.602413489E0,2.559390068E-1,-2.765609920E-1,-5.714000016E-2,3.811243067E-1
6.607410105E0,-1.991360039E-1,6.557899714E-2,-1.812839955E-1,2.771635617E-1
6.612406482E0,3.135199845E-2,6.285200268E-2,1.764499955E-2,7.242008048E-2
6.617403019E0,5.762900040E-2,-5.738300085E-2,-8.316499740E-2,1.163199349E-1
6.622399711E0,-3.353400156E-2,2.443799935E-2,-6.632900238E-2,7.823861981E-2
6.627396247E0,2.934999997E-3,1.057600044E-2,-4.717700183E-2,4.843692303E-2
6.632392631E0,1.978800073E-2,-1.662500016E-2,-7.354299724E-2,7.795208815E-2
6.637389269E0,-3.600999946E-3,8.883000351E-3,-2.564500086E-2,2.737774580E-2
6.642385884E0,-5.555000156E-2,3.213800117E-2,-1.070550010E-1,1.248175750E-1
6.647382424E0,1.482169926E-1,-5.877700076E-2,-1.604199968E-2,1.602509235E-1
6.652379043E0,-1.259109974E-1,5.395599827E-2,-6.644099951E-2,1.522472838E-1
6.657375658E0,-1.628000056E-3,2.316999994E-2,-1.142179966E-1,1.165557808E-1
6.662372045E0,1.521120071E-1,-5.018800125E-2,1.023599971E-2,1.605044357E-1
6.667368643E0,-6.543999910E-2,2.341799997E-2,-2.105900086E-2,7.262422270E-2
6.672365184E0,-1.075220034E-1,5.009400100E-2,-1.574710011E-1,1.971484373E-1
6.677361792E0,5.906999856E-2,-2.060499974E-2,-5.679300055E-2,8.449423445E-2
6.682358408E0,7.818800211E-2,-4.738099873E-2,5.329800025E-2,1.058253256E-1
6.687354804E0,-1.828199998E-2,1.777000027E-3,-4.970199987E-2,5.298752725E-2
6.692351341E0,-4.583099857E-2,3.061700054E-2,-1.741700023E-1,1.826829791E-1
6.697347956E0,2.273000078E-3,9.662999772E-3,-7.835099846E-2,7.897733253E-2
6.702344552E0,2.434699982E-2,-1.257499959E-2,4.852899909E-2,5.573123691E-2
6.707340939E0,-9.119000286E-3,-2.030000032E-4,-1.375900023E-2,1.650780005E-2
6.712337552E0,1.093999948E-3,2.358900011E-2,-1.358540058E-1,1.378910753E-1
6.717334102E0,2.067600004E-2,1.521100011E-2,-1.215230003E-1,1.242043119E-1
6.722330715E0,-2.375999931E-3,-6.849000230E-3,5.315000191E-3,8.989071524E-3
6.727327346E0,-1.453000028E-2,-8.678000420E-3,1.012100000E-2,1.971961562E-2
6.732323732E0,1.525400020E-2,-5.890999921E-3,-8.560799807E-2,8.715570972E-2
6.737320346E0,1.935300045E-2,1.964000054E-3,-1.023579985E-1,1.041899985E-1
6.742316886E0,-1.507200021E-2,9.301999584E-3,-3.773099929E-2,4.168117914E-2
6.747313500E0,-2.324100025E-2,8.516999893E-3,-1.617800072E-2,2.957044279E-2
6.752310115E0,2.343999920E-3,1.252199989E-2,-6.884100288E-2,7.000984570E-2
6.757306502E0,1.657699980E-2,1.176699996E-2,-9.999799728E-2,1.020434156E-1
6.762303115E0,3.623999888E-3,6.486999802E-3,-5.454900116E-2,5.505277531E-2
6.767299632E0,-1.079900004E-2,1.206999994E-3,-1.147199981E-2,1.580133002E-2
6.772296245E0,-7.524000015E-3,9.299999801E-4,-5.216300115E-2,5.271104405E-2
6.777292860E0,7.526000030E-3,1.069299970E-2,-9.763099998E-2,9.850275670E-2
6.782289247E0,2.324000001E-3,7.891000248E-3,-7.371299714E-2,7.417057913E-2
6.787285860E0,-9.762999602E-3,2.757000038E-3,-2.823900059E-2,3.000597215E-2
6.792282377E0,-4.354999866E-3,5.001999903E-3,-3.541199863E-2,3.602770703E-2
6.797278990E0,1.517700031E-2,2.287999960E-3,-6.893300265E-2,7.062106723E-2
6.802275377E0,1.894100010E-2,4.701000173E-3,-6.656300277E-2,6.936493512E-2
6.807272014E0,-1.460999949E-3,9.293000214E-3,-4.026300088E-2,4.134735316E-2
6.812268630E0,-6.107999943E-3,3.727999981E-3,-4.028699920E-2,4.091757509E-2
6.817265169E0,1.403999981E-3,3.428000025E-3,-7.380799949E-2,7.390090114E-2
6.822261782E0,6.153999828E-3,1.072000014E-3,-8.099199831E-2,8.123253467E-2
6.827258169E0,9.319999954E-4,-1.058000023E-3,-4.986599833E-2,4.988592765E-2
6.832254783E0,-1.507999958E-3,-8.130000206E-4,-4.267700016E-2,4.271137291E-2
6.837251398E0,-3.649000078E-3,-7.149999728E-4,-6.421399862E-2,6.432156749E-2
6.842247914E0,1.515000011E-3,-4.550000012E-4,-7.616899908E-2,7.618542295E-2
6.847244528E0,1.468000002E-3,6.901000161E-3,-5.940299854E-2,5.982052376E-2
6.852240938E0,-1.001999946E-3,1.705999952E-3,-4.505399987E-2,4.509742059E-2
6.857237552E0,1.398000051E-3,1.595000038E-3,-5.702900141E-2,5.706842763E-2
6.862234092E0,1.325999969E-3,6.422999781E-3,-6.900200248E-2,6.931298254E-2
6.867230702E0,-1.007999992E-3,1.402999973E-3,-6.182499975E-2,6.184913150E-2
6.872227088E0,-5.547000095E-3,3.868000116E-3,-4.745100066E-2,4.793045064E-2
6.877223678E0,-7.435000036E-3,6.076999940E-3,-5.462900177E-2,5.546653935E-2
6.882220293E0,4.260000132E-4,3.330999985E-3,-6.659699976E-2,6.668161227E-2
6.887216834E0,5.247000139E-3,-1.536000054E-3,-5.702299997E-2,5.728449033E-2
6.892213451E0,1.599999960E-4,-1.228000037E-3,-4.983400181E-2,4.984938636E-2
6.897209838E0,-4.606999923E-3,-9.679999785E-4,-5.700799823E-2,5.720203960E-2
6.902206451E0,6.259999936E-4,-5.497000180E-3,-5.698800087E-2,5.725592659E-2
6.907203015E0,5.510000046E-3,-9.530000389E-3,-5.935199931E-2,6.036423470E-2
6.912199629E0,2.798999893E-3,5.942000076E-3,-5.453300104E-2,5.492713325E-2
6.917196249E0,2.706999891E-3,1.517899986E-2,-5.694099888E-2,5.899158617E-2
6.922192636E0,5.018999800E-3,2.083000029E-3,-6.177100167E-2,6.200956293E-2
6.927189158E0,2.251999918E-3,2.095999895E-3,-5.459700152E-2,5.468361084E-2
6.932185774E0,2.203000011E-3,2.088000067E-3,-5.938699841E-2,5.946451491E-2
6.937182389E0,2.167999977E-3,4.490000196E-3,-5.938699841E-2,5.959593867E-2
6.942179019E0,-2.752000000E-3,9.077000432E-3,-5.460900068E-2,5.542660369E-2
6.947175405E0,-4.865000024E-3,6.072000135E-3,-5.223099887E-2,5.280733523E-2
6.952172019E0,5.167999770E-3,9.229999851E-4,-5.223299935E-2,5.249615578E-2
6.957168649E0,7.899999764E-5,-3.781999927E-3,-5.223700032E-2,5.237379084E-2
6.962165189E0,-9.359999560E-3,3.886000020E-3,-5.939799920E-2,6.025639299E-2
6.967161579E0,-3.607999999E-3,6.130000111E-3,-6.416799873E-2,6.456103025E-2
6.972158192E0,1.352499984E-2,1.013000030E-3,-5.699200183E-2,5.858361599E-2
6.977154733E0,1.241200045E-2,3.497000085E-3,-5.461800098E-2,5.611962933E-2
6.982151346E0,4.207000136E-3,3.367000027E-3,-5.464800075E-2,5.491301781E-2
6.987147724E0,-1.047500037E-2,-6.328999996E-3,-5.705400184E-2,5.835187229E-2
6.992144337E0,-7.131999824E-3,-1.279199962E-2,-4.743000120E-2,4.963975916E-2
6.997140878E0,5.479000043E-3,-4.364999942E-3,-4.258099943E-2,4.315337969E-2
7.002137471E0,2.737999894E-3,3.322999924E-3,-5.693599954E-2,5.709857280E-2
7.007134087E0,2.652999945E-3,5.611999892E-3,-6.173000112E-2,6.204132486E-2
7.012130473E0,-2.199999988E-3,5.322000012E-3,-5.934600160E-2,5.962475651E-2
7.017127073E0,-4.141999874E-3,7.443000097E-3,-6.413599849E-2,6.469915545E-2
7.022123613E0,1.166000031E-3,7.005000021E-3,-5.456100032E-2,5.502119898E-2
7.027120227E0,1.078800019E-2,1.890999964E-3,-4.978400096E-2,5.097453855E-2
7.032116842E0,7.606000174E-3,1.988000004E-3,-4.740599915E-2,4.805343004E-2
7.037113224E0,6.982999854E-3,6.752999965E-3,-4.742100090E-2,4.840574988E-2
7.042109837E0,1.359499991E-2,1.532000024E-3,-4.744999856E-2,4.938292630E-2
7.047106377E0,7.772999816E-3,3.942999989E-3,-4.986599833E-2,5.062197709E-2
7.052102962E0,5.999999848E-5,3.758999985E-3,-5.946300179E-2,5.958172759E-2
7.057099348E0,2.606000053E-3,1.226000022E-3,-6.425199658E-2,6.431650936E-2
7.062095962E0,7.333000191E-3,-1.071000006E-3,-6.185600162E-2,6.229835366E-2
7.067092502E0,2.075999975E-3,-3.181000007E-3,-6.425099820E-2,6.436318285E-2
7.072089116E0,-2.828999888E-3,4.368999973E-3,-6.424000114E-2,6.445051705E-2
7.077085741E0,-4.916999955E-3,6.587000098E-3,-5.945099890E-2,6.001655379E-2
7.082082356E0,-6.730999798E-3,-5.764999893E-3,-5.705700070E-2,5.774117171E-2
7.087078666E0,1.077000052E-3,4.482000135E-3,-5.701899901E-2,5.720502165E-2
7.092075275E0,-1.256000018E-3,6.668000016E-3,-5.702399835E-2,5.742626706E-2
7.097071890E0,-5.783999804E-3,1.484000008E-3,-6.182099879E-2,6.210871759E-2
7.102068277E0,-4.389999958E-4,1.547000022E-3,-6.420099735E-2,6.422113352E-2
7.107064875E0,-3.380000126E-4,1.612999942E-3,-5.940899998E-2,5.943185418E-2
7.112061490E0,-4.939999897E-3,6.446999963E-3,-6.179700047E-2,6.232845798E-2
7.117058017E0,-4.350999836E-3,6.084000226E-3,-6.418800354E-2,6.462233404E-2
7.122054402E0,8.750000270E-4,3.365000011E-3,-5.940299854E-2,5.950466440E-2
7.127051029E0,5.745999981E-3,-1.527999993E-3,-5.461499840E-2,5.493768606E-2
7.132047644E0,3.007000079E-3,-3.725999966E-3,-5.461499840E-2,5.482447606E-2
7.137044185E0,2.792000072E-3,-3.341000061E-3,-4.981900007E-2,5.000890234E-2
7.142040798E0,2.691000002E-3,-7.687999867E-3,-4.980500042E-2,5.046667108E-2
7.147037185E0,-4.583999980E-3,-4.478999879E-3,-5.696000159E-2,5.731942321E-2
7.152033798E0,-6.430999842E-3,-3.916999791E-3,-6.171699986E-2,6.217466299E-2
7.157030339E0,-5.822999869E-3,-5.884999875E-3,-6.168600172E-2,6.223908225E-2
7.162026952E0,1.918000053E-3,-3.990000114E-4,-6.164800003E-2,6.167911991E-2
7.167023567E0,8.995000273E-3,-1.720000000E-4,-5.685500056E-2,5.756240702E-2
7.172019954E0,5.981000140E-3,-2.372999908E-3,-5.925500020E-2,5.960334337E-2
7.177016486E0,5.625000224E-3,4.100000078E-4,-6.643199921E-2,6.667097754E-2
7.182013101E0,1.009800006E-2,2.876000013E-3,-6.404200196E-2,6.489698758E-2
7.187009731E0,4.604999907E-3,-4.348999821E-3,-5.687899888E-2,5.723058917E-2
7.192006118E0,-5.214999896E-3,-3.797000041E-3,-5.686299875E-2,5.722773856E-2
7.197002740E0,1.729999931E-4,1.389999990E-3,-5.683400109E-2,5.685125952E-2
7.201999281E0,7.598000113E-3,8.527000435E-3,-5.922500044E-2,6.031616715E-2
7.206995894E0,7.203999907E-3,5.485000089E-3,-5.686400086E-2,5.758035632E-2
7.211992535E0,-1.023699995E-2,2.699000062E-3,-4.731800035E-2,4.848787401E-2
7.216988921E0,-4.555400088E-2,1.458500046E-2,-5.688200146E-2,7.431992549E-2
7.221985477E0,-2.678699978E-2,1.817799918E-2,-7.597699761E-2,8.258624085E-2
7.226982092E0,1.059560031E-1,-2.635999955E-2,-4.242800176E-2,1.171394873E-1
7.231978708E0,1.276639998E-1,-5.038300157E-2,1.010600012E-2,1.376178583E-1
7.236975094E0,-1.695190072E-1,6.394100189E-2,-9.775699675E-2,2.058678604E-1
7.241971631E0,-9.425500035E-2,4.694399983E-2,-1.766009927E-1,2.056104444E-1
7.246968255E0,1.734549999E-1,-6.401900202E-2,4.616200179E-2,1.905675734E-1
7.251964870E0,-1.100450009E-1,3.914900124E-2,1.006700005E-2,1.172343423E-1
7.256961272E0,6.697399914E-2,-2.200799994E-2,-1.239209995E-1,1.425702730E-1
7.261957885E0,-3.077999922E-3,1.870300062E-2,-1.215649992E-1,1.230338382E-1
7.266954421E0,2.574000042E-3,9.159999900E-4,-3.539200127E-2,3.549729970E-2
7.271951034E0,-1.950499974E-2,8.132999763E-3,-1.385500003E-2,2.526958104E-2
7.276947421E0,5.648000166E-3,9.000000136E-5,-5.455999821E-2,5.485163089E-2
7.281944034E0,-4.153000191E-3,2.641000086E-3,-1.359619945E-1,1.360510428E-1
7.286940575E0,-8.829999715E-4,7.736000232E-3,-3.537400067E-2,3.622078563E-2
7.291937202E0,5.479399860E-2,-5.267700180E-2,-3.777499869E-2,8.487755491E-2
7.296933589E0,-1.203130037E-1,7.146599889E-2,-5.928099900E-2,1.519764610E-1
7.301930202E0,1.822820008E-1,-6.846500188E-2,-4.248600081E-2,1.992968754E-1
7.306926833E0,-1.658229977E-1,6.454499811E-2,-1.671209931E-1,2.441162627E-1
7.311923373E0,7.358600199E-2,4.608999938E-3,7.485099882E-2,1.050657632E-1
7.316919972E0,1.323010027E-1,-1.206149980E-1,-7.615000010E-2,1.945516785E-1
7.321916358E0,-2.695820034E-1,1.459809989E-1,-1.430719942E-1,3.383112533E-1
7.326912958E0,2.184720039E-1,-5.754299834E-2,4.378899932E-2,2.301275508E-1
7.331909498E0,5.212400109E-2,-1.246019974E-1,-1.408129930E-1,1.951175755E-1
7.336906111E0,-3.022629917E-1,2.048590034E-1,-9.502699971E-2,3.773065837E-1
7.341902482E0,2.358669937E-1,-4.703199863E-2,7.972799987E-2,2.533807443E-1
7.346899095E0,1.228889972E-1,-1.869300008E-1,-1.743929982E-1,2.836502224E-1
7.351895636E0,-3.305509984E-1,2.439599931E-1,-1.428859979E-1,4.349676416E-1
7.356892249E0,9.053599834E-2,6.787099689E-2,1.275690049E-1,1.705200581E-1
7.361888865E0,2.770110071E-1,-3.211979866E-1,-6.436099857E-2,4.290053412E-1
7.366885251E0,-2.300429940E-1,9.423699975E-2,-2.219049931E-1,3.332299764E-1
7.371881865E0,-1.885540038E-1,3.237569928E-1,1.768399961E-2,3.750785606E-1
7.376878429E0,2.919099927E-1,-2.136680037E-1,8.412999660E-2,3.714072104E-1
7.381875043E0,1.382730007E-1,-2.988660038E-1,-1.648250073E-1,3.682493638E-1
7.386871429E0,-3.021390140E-1,2.755419910E-1,-1.736849993E-1,4.442722719E-1
7.391867966E0,-9.414800256E-2,2.784999907E-1,6.544999778E-2,3.011806657E-1
7.396864658E0,3.112899959E-1,-3.173469901E-1,4.566000029E-2,4.468729230E-1
7.401860954E0,1.082220003E-1,-3.073759973E-1,-1.886370033E-1,3.765314384E-1
7.406857798E0,-2.864579856E-1,2.967500091E-1,-1.662569940E-1,4.447022976E-1
7.411854185E0,-1.398160011E-1,3.482469916E-1,5.839399993E-2,3.797819645E-1
7.416850697E0,2.670269907E-1,-2.414450049E-1,5.763800070E-2,3.645836574E-1
7.421847312E0,2.089609951E-1,-4.078490138E-1,-1.456889957E-1,4.808646369E-1
7.426843703E0,-2.036409974E-1,1.231869981E-1,-1.974070072E-1,3.092154893E-1
7.431840316E0,-2.625910044E-1,4.552809894E-1,-1.785399951E-2,5.258836185E-1
7.436836852E0,1.115010008E-1,4.548700154E-2,9.857500345E-2,1.556231724E-1
7.441833465E0,3.056910038E-1,-4.444490075E-1,-3.107500076E-2,5.403217243E-1
7.446830081E0,2.396300063E-2,-2.149060071E-1,-2.002730072E-1,2.947339388E-1
7.451826443E0,-2.962290049E-1,3.692969978E-1,-1.373109967E-1,4.929363100E-1
7.456822980E0,-1.631260067E-1,3.833700120E-1,5.598599836E-2,4.203773212E-1
7.461819600E0,2.119780034E-1,-1.687079966E-1,7.432900369E-2,2.809303523E-1
7.466816216E0,2.613140047E-1,-4.538789988E-1,-9.321600199E-2,5.319589999E-1
7.471812602E0,-6.471499801E-2,-6.758800149E-2,-2.047899961E-1,2.251557493E-1
7.476809207E0,-2.911759913E-1,4.249089956E-1,-1.038530022E-1,5.254679424E-1
7.481805747E0,-9.401399642E-2,3.024919927E-1,7.970599830E-2,3.266390720E-1
7.486802131E0,2.417279929E-1,-2.427249998E-1,5.985600129E-2,3.477507569E-1
7.491798744E0,2.383729964E-1,-4.449410141E-1,-1.242839992E-1,5.198468081E-1
7.496795276E0,-8.808399737E-2,-2.806999907E-2,-2.094739974E-1,2.289674016E-1
7.501791889E0,-2.909480035E-1,4.442479908E-1,-9.665600210E-2,5.397679139E-1
7.506788523E0,-8.894400299E-2,3.057999909E-1,7.247599959E-2,3.266151261E-1
7.511784910E0,2.344170064E-1,-2.444819957E-1,5.260999873E-2,3.427690054E-1
7.516781446E0,2.363670021E-1,-4.559850097E-1,-1.195399985E-1,5.273343342E-1
7.521778076E0,-7.075700164E-2,-5.246299878E-2,-2.022960037E-1,2.206413212E-1
7.526774691E0,-2.775430083E-1,4.219520092E-1,-9.900700301E-2,5.146610595E-1
7.531771094E0,-1.174879968E-1,3.261260092E-1,7.015799731E-2,3.536718081E-1
7.536767707E0,2.105939984E-1,-1.875720024E-1,6.943500042E-2,2.904381303E-1
7.541764248E0,2.648339868E-1,-4.542559981E-1,-8.847100288E-2,5.332097812E-1
7.546760856E0,-2.308899909E-2,-1.229240000E-1,-2.048310041E-1,2.399982332E-1
7.551757243E0,-2.674440145E-1,3.862639964E-1,-1.253300011E-1,4.862445732E-1
7.556753861E0,-1.608169973E-1,3.796029985E-1,4.390700161E-2,4.145942207E-1
7.561750402E0,1.734379977E-1,-1.218800023E-1,6.943800300E-2,2.230630186E-1
7.566746762E0,2.787140012E-1,-4.659610093E-1,-7.421799749E-2,5.480049888E-1
7.571743376E0,1.843399927E-2,-1.887930036E-1,-2.025589943E-1,2.775117235E-1
7.576739991E0,-2.556810081E-1,3.358010054E-1,-1.444510072E-1,4.460954905E-1
7.581736532E0,-1.953860074E-1,4.005590081E-1,2.491400018E-2,4.463674700E-1
7.586733145E0,1.320939958E-1,-5.721899867E-2,8.155599982E-2,1.654515598E-1
7.591729532E0,2.837499976E-1,-4.474230111E-1,-4.544600099E-2,5.317581696E-1
7.596726145E0,6.374700367E-2,-2.414720058E-1,-1.930260062E-1,3.156444981E-1
7.601722760E0,-2.382709980E-1,2.851510048E-1,-1.587699950E-1,4.040941417E-1
7.606719296E0,-2.178390026E-1,4.405060112E-1,5.927000195E-3,4.914616021E-1
7.611715680E0,8.998200297E-2,3.677099943E-2,8.162300289E-2,1.269298305E-1
7.616712313E0,2.763360143E-1,-4.140749872E-1,-2.162100002E-2,4.982842115E-1
7.621708928E0,1.119259968E-1,-3.091799915E-1,-1.812970042E-1,3.754840871E-1
7.626705493E0,-2.061640024E-1,2.064850032E-1,-1.780380011E-1,3.418145437E-1
7.631702106E0,-2.576720119E-1,4.548879862E-1,-2.270900086E-2,5.232911660E-1
7.636698503E0,3.223000094E-2,1.192359999E-1,9.610100091E-2,1.564972811E-1
7.641695116E0,2.760249972E-1,-3.697580099E-1,2.146299928E-2,4.619214710E-1
7.646691657E0,1.620270014E-1,-3.670600057E-1,-1.551409960E-1,4.301796434E-1
7.651688260E0,-1.652150005E-1,1.104519963E-1,-1.853210032E-1,2.717342711E-1
7.656684647E0,-2.753370106E-1,4.509199858E-1,-4.411400110E-2,5.301748278E-1
7.661681193E0,-1.984200068E-2,2.041810006E-1,8.668600023E-2,2.227061935E-1
7.666677808E0,2.618040144E-1,-3.087610006E-1,2.627200074E-2,4.056660147E-1
7.671674424E0,2.040780038E-1,-4.022499919E-1,-1.361390054E-1,4.711546629E-1
7.676670811E0,-1.171270013E-1,3.746699914E-2,-1.902489960E-1,2.265329798E-1
7.681667424E0,-2.840979993E-1,4.441550076E-1,-8.000200242E-2,5.332782242E-1
7.686663978E0,-7.568100095E-2,2.769899964E-1,7.954499871E-2,2.979571762E-1
7.691660592E0,2.345589995E-1,-2.469059974E-1,5.015699938E-2,3.442327997E-1
7.696656978E0,2.340999991E-1,-4.486120045E-1,-1.219789982E-1,5.205136080E-1
7.701653510E0,-6.086400151E-2,-8.411499858E-2,-2.047570050E-1,2.295761110E-1
7.706650125E0,-2.780900002E-1,3.953579962E-1,-1.109569967E-1,4.959369400E-1
7.711646507E0,-1.538480073E-1,3.663629889E-1,5.348800123E-2,4.009389172E-1
7.716643120E0,1.630170047E-1,-1.269170046E-1,7.665199786E-2,2.203587953E-1
7.721639726E0,2.667750120E-1,-4.538379908E-1,-5.979000032E-2,5.298232470E-1
7.726636266E0,3.864099830E-2,-2.137220055E-1,-1.857630014E-1,2.857938332E-1
7.731632880E0,-2.373660058E-1,2.890070081E-1,-1.443710029E-1,4.008873382E-1
7.736629256E0,-2.193520069E-1,4.320369959E-1,1.074399985E-2,4.846511140E-1
7.741625793E0,7.670900226E-2,5.057299882E-2,8.169200271E-2,1.229450387E-1
7.746622423E0,2.784470022E-1,-3.990510106E-1,-2.156900056E-2,4.870725448E-1
7.751618810E0,1.450880021E-1,-3.409290016E-1,-1.741289943E-1,4.093946985E-1
7.756615442E0,-1.638109982E-1,1.464190036E-1,-1.827999949E-1,2.858118365E-1
7.761611983E0,-2.716630101E-1,4.574170113E-1,-4.411099851E-2,5.338322709E-1
7.766608596E0,-4.282199964E-2,2.149119973E-1,7.948300242E-2,2.331060658E-1
7.771604959E0,2.335029989E-1,-2.845650017E-1,3.106000088E-2,3.694125260E-1
7.776601572E0,2.188850045E-1,-4.280210137E-1,-1.194119975E-1,4.953502383E-1
7.781598112E0,-5.800399929E-2,-4.845099896E-2,-1.950339973E-1,2.091655405E-1
7.786594726E0,-2.658149898E-1,3.991479874E-1,-1.061490029E-1,4.911663012E-1
7.791591341E0,-1.425469965E-1,3.554599881E-1,5.347900093E-2,3.866929698E-1
7.796587742E0,1.877180040E-1,-1.463630050E-1,7.187400013E-2,2.486484469E-1
7.801584355E0,2.606590092E-1,-4.141589999E-1,-9.329299629E-2,4.981710343E-1
7.806580867E0,-1.587959975E-1,2.628999949E-2,-2.145889997E-1,2.682457301E-1
7.811577480E0,-1.859129965E-1,2.569440007E-1,-1.802100055E-2,3.176611689E-1
7.816573867E0,2.275339961E-1,-1.072639972E-1,3.182699904E-2,2.535552057E-1
7.821570403E0,-9.333900362E-2,-2.553999890E-3,-1.406829953E-1,1.688502226E-1
7.826567019E0,3.437000094E-3,4.120900109E-2,-2.075799927E-2,4.626974470E-2
7.831563405E0,2.487800084E-2,-1.731899939E-2,-6.159200147E-2,6.864719449E-2
7.836559932E0,-8.221000433E-3,3.515999997E-3,-6.875699759E-2,6.933593456E-2
7.841556547E0,2.107300051E-2,-1.103399973E-2,-3.762599826E-2,4.451444985E-2
7.846553187E0,-5.223200098E-2,1.865299977E-2,-9.987399727E-2,1.142406743E-1
7.851549573E0,1.271830052E-1,-4.967499897E-2,-8.833999746E-3,1.368252970E-1
7.856546187E0,-1.474329978E-1,6.464099884E-2,-7.836999744E-2,1.790441400E-1
7.861542732E0,3.609599918E-2,4.236999899E-3,-9.261800349E-2,9.949355705E-2
7.866539345E0,1.094970033E-1,-3.173499927E-2,7.859000005E-3,1.142736531E-1
7.871535732E0,-1.401049942E-1,6.184099987E-2,-8.086399734E-2,1.731840198E-1
7.876532340E0,-4.338499904E-2,3.769800067E-2,-1.477870047E-1,1.585698463E-1
7.881528881E0,1.312469989E-1,-3.912800178E-2,1.025000028E-2,1.373384060E-1
7.886525490E0,3.050599992E-2,-2.392899990E-2,1.726100035E-2,4.244001886E-2
7.891521877E0,-9.515099972E-2,3.781900182E-2,-1.335860044E-1,1.683128344E-1
7.896518408E0,-3.100199997E-2,2.808400057E-2,-1.358640045E-1,1.421578799E-1
7.901515024E0,4.727699980E-2,-1.921200007E-2,2.936699986E-2,5.887814822E-2
